RPi_Dev,ts,x,y,z,vx,vy,vz,ax,ay,az,temp,ox,oy,oz,wx,wy,wz,RPi_Dev,ts,x,y,z,vx,vy,vz,ax,ay,az,temp,ox,oy,oz,wx,wy,wz,RPi_Dev,ts,x,y,z,vx,vy,vz,ax,ay,az,temp,ox,oy,oz,wx,wy,wz,RPi_Dev,ts,x,y,z,vx,vy,vz,ax,ay,az,temp,ox,oy,oz,wx,wy,wz,RPi_Dev,ts,x,y,z,vx,vy,vz,ax,ay,az,temp,ox,oy,oz,wx,wy,wz,RPi_Dev,ts,x,y,z,vx,vy,vz,ax,ay,az,temp,ox,oy,oz,wx,wy,wz,
0,7,0.000000,0.000000,0.000000,0.000000,0.000000,0.000000,0.000000,0.000000,0.000000,0.000000,0.000000,0.000000,0.000000,0.000000,0.000000,0.000000,1,140325673285658,0.000000,0.000000,0.000000,0.000000,0.000000,0.000000,0.000000,0.000000,0.000000,0.000000,0.000000,0.000000,0.000000,0.000000,0.000000,0.000000,2,725871085,0.000000,0.000000,0.000000,0.000000,0.000000,0.000000,0.000000,0.000000,0.000000,0.000000,0.000000,0.000000,0.000000,0.000000,0.000000,0.000000,3,4195288,0.000000,0.000000,0.000000,0.000000,0.000000,0.000000,0.000000,0.000000,0.000000,0.000000,0.000000,0.000000,0.000000,0.000000,0.000000,0.000000,4,140325680855504,0.000000,0.000000,0.000000,0.000000,0.000000,0.000000,0.000000,0.000000,0.000000,0.000000,0.000000,0.000000,0.000000,0.000000,0.000000,0.000000,5,140325680850480,0.000000,0.000000,0.000000,0.000000,0.000000,0.000000,0.000000,0.000000,0.000000,0.000000,0.000000,0.000000,0.000000,0.000000,0.000000,0.000000,
0,7,0.000000,0.000000,0.000000,0.000000,0.000000,0.000000,0.000000,0.000000,0.000000,0.000000,0.000000,0.000000,0.000000,0.000000,0.000000,0.000000,1,140325673285658,0.000000,0.000000,0.000000,0.000000,0.000000,0.000000,0.000000,0.000000,0.000000,0.000000,0.000000,0.000000,0.000000,0.000000,0.000000,0.000000,2,725871085,0.000000,0.000000,0.000000,0.000000,0.000000,0.000000,0.000000,0.000000,0.000000,0.000000,0.000000,0.000000,0.000000,0.000000,0.000000,0.000000,3,4195288,0.000000,0.000000,0.000000,0.000000,0.000000,0.000000,0.000000,0.000000,0.000000,0.000000,0.000000,0.000000,0.000000,0.000000,0.000000,0.000000,4,140325680855504,0.000000,0.000000,0.000000,0.000000,0.000000,0.000000,0.000000,0.000000,0.000000,0.000000,0.000000,0.000000,0.000000,0.000000,0.000000,0.000000,5,140325680850480,0.000000,0.000000,0.000000,0.000000,0.000000,0.000000,0.000000,0.000000,0.000000,0.000000,0.000000,0.000000,0.000000,0.000000,0.000000,0.000000,
0,7,0.000000,0.000000,0.000000,0.000000,0.000000,0.000000,0.000000,0.000000,0.000000,0.000000,0.000000,0.000000,0.000000,0.000000,0.000000,0.000000,1,140325673285658,0.000000,0.000000,0.000000,0.000000,0.000000,0.000000,0.000000,0.000000,0.000000,0.000000,0.000000,0.000000,0.000000,0.000000,0.000000,0.000000,2,725871085,0.000000,0.000000,0.000000,0.000000,0.000000,0.000000,0.000000,0.000000,0.000000,0.000000,0.000000,0.000000,0.000000,0.000000,0.000000,0.000000,3,4195288,0.000000,0.000000,0.000000,0.000000,0.000000,0.000000,0.000000,0.000000,0.000000,0.000000,0.000000,0.000000,0.000000,0.000000,0.000000,0.000000,4,140325680855504,0.000000,0.000000,0.000000,0.000000,0.000000,0.000000,0.000000,0.000000,0.000000,0.000000,0.000000,0.000000,0.000000,0.000000,0.000000,0.000000,5,140325680850480,0.000000,0.000000,0.000000,0.000000,0.000000,0.000000,0.000000,0.000000,0.000000,0.000000,0.000000,0.000000,0.000000,0.000000,0.000000,0.000000,
0,7,0.000000,0.000000,0.000000,0.000000,0.000000,0.000000,0.000000,0.000000,0.000000,0.000000,0.000000,0.000000,0.000000,0.000000,0.000000,0.000000,1,140325673285658,0.000000,0.000000,0.000000,0.000000,0.000000,0.000000,0.000000,0.000000,0.000000,0.000000,0.000000,0.000000,0.000000,0.000000,0.000000,0.000000,2,725871085,0.000000,0.000000,0.000000,0.000000,0.000000,0.000000,0.000000,0.000000,0.000000,0.000000,0.000000,0.000000,0.000000,0.000000,0.000000,0.000000,3,4195288,0.000000,0.000000,0.000000,0.000000,0.000000,0.000000,0.000000,0.000000,0.000000,0.000000,0.000000,0.000000,0.000000,0.000000,0.000000,0.000000,4,140325680855504,0.000000,0.000000,0.000000,0.000000,0.000000,0.000000,0.000000,0.000000,0.000000,0.000000,0.000000,0.000000,0.000000,0.000000,0.000000,0.000000,5,140325680850480,0.000000,0.000000,0.000000,0.000000,0.000000,0.000000,0.000000,0.000000,0.000000,0.000000,0.000000,0.000000,0.000000,0.000000,0.000000,0.000000,
0,7,0.000000,0.000000,0.000000,0.000000,0.000000,0.000000,0.000000,0.000000,0.000000,0.000000,0.000000,0.000000,0.000000,0.000000,0.000000,0.000000,1,140325673285658,0.000000,0.000000,0.000000,0.000000,0.000000,0.000000,0.000000,0.000000,0.000000,0.000000,0.000000,0.000000,0.000000,0.000000,0.000000,0.000000,2,725871085,0.000000,0.000000,0.000000,0.000000,0.000000,0.000000,0.000000,0.000000,0.000000,0.000000,0.000000,0.000000,0.000000,0.000000,0.000000,0.000000,3,4195288,0.000000,0.000000,0.000000,0.000000,0.000000,0.000000,0.000000,0.000000,0.000000,0.000000,0.000000,0.000000,0.000000,0.000000,0.000000,0.000000,4,140325680855504,0.000000,0.000000,0.000000,0.000000,0.000000,0.000000,0.000000,0.000000,0.000000,0.000000,0.000000,0.000000,0.000000,0.000000,0.000000,0.000000,5,140325680850480,0.000000,0.000000,0.000000,0.000000,0.000000,0.000000,0.000000,0.000000,0.000000,0.000000,0.000000,0.000000,0.000000,0.000000,0.000000,0.000000,
0,7,0.000000,0.000000,0.000000,0.000000,0.000000,0.000000,0.000000,0.000000,0.000000,0.000000,0.000000,0.000000,0.000000,0.000000,0.000000,0.000000,1,140325673285658,0.000000,0.000000,0.000000,0.000000,0.000000,0.000000,0.000000,0.000000,0.000000,0.000000,0.000000,0.000000,0.000000,0.000000,0.000000,0.000000,2,725871085,0.000000,0.000000,0.000000,0.000000,0.000000,0.000000,0.000000,0.000000,0.000000,0.000000,0.000000,0.000000,0.000000,0.000000,0.000000,0.000000,3,4195288,0.000000,0.000000,0.000000,0.000000,0.000000,0.000000,0.000000,0.000000,0.000000,0.000000,0.000000,0.000000,0.000000,0.000000,0.000000,0.000000,4,140325680855504,0.000000,0.000000,0.000000,0.000000,0.000000,0.000000,0.000000,0.000000,0.000000,0.000000,0.000000,0.000000,0.000000,0.000000,0.000000,0.000000,5,140325680850480,0.000000,0.000000,0.000000,0.000000,0.000000,0.000000,0.000000,0.000000,0.000000,0.000000,0.000000,0.000000,0.000000,0.000000,0.000000,0.000000,
0,7,0.000000,0.000000,0.000000,0.000000,0.000000,0.000000,0.000000,0.000000,0.000000,0.000000,0.000000,0.000000,0.000000,0.000000,0.000000,0.000000,1,140325673285658,0.000000,0.000000,0.000000,0.000000,0.000000,0.000000,0.000000,0.000000,0.000000,0.000000,0.000000,0.000000,0.000000,0.000000,0.000000,0.000000,2,725871085,0.000000,0.000000,0.000000,0.000000,0.000000,0.000000,0.000000,0.000000,0.000000,0.000000,0.000000,0.000000,0.000000,0.000000,0.000000,0.000000,3,4195288,0.000000,0.000000,0.000000,0.000000,0.000000,0.000000,0.000000,0.000000,0.000000,0.000000,0.000000,0.000000,0.000000,0.000000,0.000000,0.000000,4,140325680855504,0.000000,0.000000,0.000000,0.000000,0.000000,0.000000,0.000000,0.000000,0.000000,0.000000,0.000000,0.000000,0.000000,0.000000,0.000000,0.000000,5,140325680850480,0.000000,0.000000,0.000000,0.000000,0.000000,0.000000,0.000000,0.000000,0.000000,0.000000,0.000000,0.000000,0.000000,0.000000,0.000000,0.000000,
0,7,0.000000,0.000000,0.000000,0.000000,0.000000,0.000000,0.000000,0.000000,0.000000,0.000000,0.000000,0.000000,0.000000,0.000000,0.000000,0.000000,1,140325673285658,0.000000,0.000000,0.000000,0.000000,0.000000,0.000000,0.000000,0.000000,0.000000,0.000000,0.000000,0.000000,0.000000,0.000000,0.000000,0.000000,2,725871085,0.000000,0.000000,0.000000,0.000000,0.000000,0.000000,0.000000,0.000000,0.000000,0.000000,0.000000,0.000000,0.000000,0.000000,0.000000,0.000000,3,4195288,0.000000,0.000000,0.000000,0.000000,0.000000,0.000000,0.000000,0.000000,0.000000,0.000000,0.000000,0.000000,0.000000,0.000000,0.000000,0.000000,4,140325680855504,0.000000,0.000000,0.000000,0.000000,0.000000,0.000000,0.000000,0.000000,0.000000,0.000000,0.000000,0.000000,0.000000,0.000000,0.000000,0.000000,5,140325680850480,0.000000,0.000000,0.000000,0.000000,0.000000,0.000000,0.000000,0.000000,0.000000,0.000000,0.000000,0.000000,0.000000,0.000000,0.000000,0.000000,
0,7,0.000000,0.000000,0.000000,0.000000,0.000000,0.000000,0.000000,0.000000,0.000000,0.000000,0.000000,0.000000,0.000000,0.000000,0.000000,0.000000,1,140325673285658,0.000000,0.000000,0.000000,0.000000,0.000000,0.000000,0.000000,0.000000,0.000000,0.000000,0.000000,0.000000,0.000000,0.000000,0.000000,0.000000,2,725871085,0.000000,0.000000,0.000000,0.000000,0.000000,0.000000,0.000000,0.000000,0.000000,0.000000,0.000000,0.000000,0.000000,0.000000,0.000000,0.000000,3,4195288,0.000000,0.000000,0.000000,0.000000,0.000000,0.000000,0.000000,0.000000,0.000000,0.000000,0.000000,0.000000,0.000000,0.000000,0.000000,0.000000,4,140325680855504,0.000000,0.000000,0.000000,0.000000,0.000000,0.000000,0.000000,0.000000,0.000000,0.000000,0.000000,0.000000,0.000000,0.000000,0.000000,0.000000,5,140325680850480,0.000000,0.000000,0.000000,0.000000,0.000000,0.000000,0.000000,0.000000,0.000000,0.000000,0.000000,0.000000,0.000000,0.000000,0.000000,0.000000,
0,7,0.000000,0.000000,0.000000,0.000000,0.000000,0.000000,0.000000,0.000000,0.000000,0.000000,0.000000,0.000000,0.000000,0.000000,0.000000,0.000000,1,140325673285658,0.000000,0.000000,0.000000,0.000000,0.000000,0.000000,0.000000,0.000000,0.000000,0.000000,0.000000,0.000000,0.000000,0.000000,0.000000,0.000000,2,725871085,0.000000,0.000000,0.000000,0.000000,0.000000,0.000000,0.000000,0.000000,0.000000,0.000000,0.000000,0.000000,0.000000,0.000000,0.000000,0.000000,3,4195288,0.000000,0.000000,0.000000,0.000000,0.000000,0.000000,0.000000,0.000000,0.000000,0.000000,0.000000,0.000000,0.000000,0.000000,0.000000,0.000000,4,140325680855504,0.000000,0.000000,0.000000,0.000000,0.000000,0.000000,0.000000,0.000000,0.000000,0.000000,0.000000,0.000000,0.000000,0.000000,0.000000,0.000000,5,140325680850480,0.000000,0.000000,0.000000,0.000000,0.000000,0.000000,0.000000,0.000000,0.000000,0.000000,0.000000,0.000000,0.000000,0.000000,0.000000,0.000000,
0,7,0.000000,0.000000,0.000000,0.000000,0.000000,0.000000,0.000000,0.000000,0.000000,0.000000,0.000000,0.000000,0.000000,0.000000,0.000000,0.000000,1,140325673285658,0.000000,0.000000,0.000000,0.000000,0.000000,0.000000,0.000000,0.000000,0.000000,0.000000,0.000000,0.000000,0.000000,0.000000,0.000000,0.000000,2,725871085,0.000000,0.000000,0.000000,0.000000,0.000000,0.000000,0.000000,0.000000,0.000000,0.000000,0.000000,0.000000,0.000000,0.000000,0.000000,0.000000,3,4195288,0.000000,0.000000,0.000000,0.000000,0.000000,0.000000,0.000000,0.000000,0.000000,0.000000,0.000000,0.000000,0.000000,0.000000,0.000000,0.000000,4,140325680855504,0.000000,0.000000,0.000000,0.000000,0.000000,0.000000,0.000000,0.000000,0.000000,0.000000,0.000000,0.000000,0.000000,0.000000,0.000000,0.000000,5,140325680850480,0.000000,0.000000,0.000000,0.000000,0.000000,0.000000,0.000000,0.000000,0.000000,0.000000,0.000000,0.000000,0.000000,0.000000,0.000000,0.000000,
0,7,0.000000,0.000000,0.000000,0.000000,0.000000,0.000000,0.000000,0.000000,0.000000,0.000000,0.000000,0.000000,0.000000,0.000000,0.000000,0.000000,1,140325673285658,0.000000,0.000000,0.000000,0.000000,0.000000,0.000000,0.000000,0.000000,0.000000,0.000000,0.000000,0.000000,0.000000,0.000000,0.000000,0.000000,2,725871085,0.000000,0.000000,0.000000,0.000000,0.000000,0.000000,0.000000,0.000000,0.000000,0.000000,0.000000,0.000000,0.000000,0.000000,0.000000,0.000000,3,4195288,0.000000,0.000000,0.000000,0.000000,0.000000,0.000000,0.000000,0.000000,0.000000,0.000000,0.000000,0.000000,0.000000,0.000000,0.000000,0.000000,4,140325680855504,0.000000,0.000000,0.000000,0.000000,0.000000,0.000000,0.000000,0.000000,0.000000,0.000000,0.000000,0.000000,0.000000,0.000000,0.000000,0.000000,5,140325680850480,0.000000,0.000000,0.000000,0.000000,0.000000,0.000000,0.000000,0.000000,0.000000,0.000000,0.000000,0.000000,0.000000,0.000000,0.000000,0.000000,
0,7,0.000000,0.000000,0.000000,0.000000,0.000000,0.000000,0.000000,0.000000,0.000000,0.000000,0.000000,0.000000,0.000000,0.000000,0.000000,0.000000,1,140325673285658,0.000000,0.000000,0.000000,0.000000,0.000000,0.000000,0.000000,0.000000,0.000000,0.000000,0.000000,0.000000,0.000000,0.000000,0.000000,0.000000,2,725871085,0.000000,0.000000,0.000000,0.000000,0.000000,0.000000,0.000000,0.000000,0.000000,0.000000,0.000000,0.000000,0.000000,0.000000,0.000000,0.000000,3,4195288,0.000000,0.000000,0.000000,0.000000,0.000000,0.000000,0.000000,0.000000,0.000000,0.000000,0.000000,0.000000,0.000000,0.000000,0.000000,0.000000,4,140325680855504,0.000000,0.000000,0.000000,0.000000,0.000000,0.000000,0.000000,0.000000,0.000000,0.000000,0.000000,0.000000,0.000000,0.000000,0.000000,0.000000,5,140325680850480,0.000000,0.000000,0.000000,0.000000,0.000000,0.000000,0.000000,0.000000,0.000000,0.000000,0.000000,0.000000,0.000000,0.000000,0.000000,0.000000,
0,7,0.000000,0.000000,0.000000,0.000000,0.000000,0.000000,0.000000,0.000000,0.000000,0.000000,0.000000,0.000000,0.000000,0.000000,0.000000,0.000000,1,140325673285658,0.000000,0.000000,0.000000,0.000000,0.000000,0.000000,0.000000,0.000000,0.000000,0.000000,0.000000,0.000000,0.000000,0.000000,0.000000,0.000000,2,725871085,0.000000,0.000000,0.000000,0.000000,0.000000,0.000000,0.000000,0.000000,0.000000,0.000000,0.000000,0.000000,0.000000,0.000000,0.000000,0.000000,3,4195288,0.000000,0.000000,0.000000,0.000000,0.000000,0.000000,0.000000,0.000000,0.000000,0.000000,0.000000,0.000000,0.000000,0.000000,0.000000,0.000000,4,140325680855504,0.000000,0.000000,0.000000,0.000000,0.000000,0.000000,0.000000,0.000000,0.000000,0.000000,0.000000,0.000000,0.000000,0.000000,0.000000,0.000000,5,140325680850480,0.000000,0.000000,0.000000,0.000000,0.000000,0.000000,0.000000,0.000000,0.000000,0.000000,0.000000,0.000000,0.000000,0.000000,0.000000,0.000000,
0,7,0.000000,0.000000,0.000000,0.000000,0.000000,0.000000,0.000000,0.000000,0.000000,0.000000,0.000000,0.000000,0.000000,0.000000,0.000000,0.000000,1,140325673285658,0.000000,0.000000,0.000000,0.000000,0.000000,0.000000,0.000000,0.000000,0.000000,0.000000,0.000000,0.000000,0.000000,0.000000,0.000000,0.000000,2,725871085,0.000000,0.000000,0.000000,0.000000,0.000000,0.000000,0.000000,0.000000,0.000000,0.000000,0.000000,0.000000,0.000000,0.000000,0.000000,0.000000,3,4195288,0.000000,0.000000,0.000000,0.000000,0.000000,0.000000,0.000000,0.000000,0.000000,0.000000,0.000000,0.000000,0.000000,0.000000,0.000000,0.000000,4,140325680855504,0.000000,0.000000,0.000000,0.000000,0.000000,0.000000,0.000000,0.000000,0.000000,0.000000,0.000000,0.000000,0.000000,0.000000,0.000000,0.000000,5,140325680850480,0.000000,0.000000,0.000000,0.000000,0.000000,0.000000,0.000000,0.000000,0.000000,0.000000,0.000000,0.000000,0.000000,0.000000,0.000000,0.000000,
0,7,0.000000,0.000000,0.000000,0.000000,0.000000,0.000000,0.000000,0.000000,0.000000,0.000000,0.000000,0.000000,0.000000,0.000000,0.000000,0.000000,1,140325673285658,0.000000,0.000000,0.000000,0.000000,0.000000,0.000000,0.000000,0.000000,0.000000,0.000000,0.000000,0.000000,0.000000,0.000000,0.000000,0.000000,2,725871085,0.000000,0.000000,0.000000,0.000000,0.000000,0.000000,0.000000,0.000000,0.000000,0.000000,0.000000,0.000000,0.000000,0.000000,0.000000,0.000000,3,4195288,0.000000,0.000000,0.000000,0.000000,0.000000,0.000000,0.000000,0.000000,0.000000,0.000000,0.000000,0.000000,0.000000,0.000000,0.000000,0.000000,4,140325680855504,0.000000,0.000000,0.000000,0.000000,0.000000,0.000000,0.000000,0.000000,0.000000,0.000000,0.000000,0.000000,0.000000,0.000000,0.000000,0.000000,5,140325680850480,0.000000,0.000000,0.000000,0.000000,0.000000,0.000000,0.000000,0.000000,0.000000,0.000000,0.000000,0.000000,0.000000,0.000000,0.000000,0.000000,
0,7,0.000000,0.000000,0.000000,0.000000,0.000000,0.000000,0.000000,0.000000,0.000000,0.000000,0.000000,0.000000,0.000000,0.000000,0.000000,0.000000,1,140325673285658,0.000000,0.000000,0.000000,0.000000,0.000000,0.000000,0.000000,0.000000,0.000000,0.000000,0.000000,0.000000,0.000000,0.000000,0.000000,0.000000,2,725871085,0.000000,0.000000,0.000000,0.000000,0.000000,0.000000,0.000000,0.000000,0.000000,0.000000,0.000000,0.000000,0.000000,0.000000,0.000000,0.000000,3,4195288,0.000000,0.000000,0.000000,0.000000,0.000000,0.000000,0.000000,0.000000,0.000000,0.000000,0.000000,0.000000,0.000000,0.000000,0.000000,0.000000,4,140325680855504,0.000000,0.000000,0.000000,0.000000,0.000000,0.000000,0.000000,0.000000,0.000000,0.000000,0.000000,0.000000,0.000000,0.000000,0.000000,0.000000,5,140325680850480,0.000000,0.000000,0.000000,0.000000,0.000000,0.000000,0.000000,0.000000,0.000000,0.000000,0.000000,0.000000,0.000000,0.000000,0.000000,0.000000,
0,7,0.000000,0.000000,0.000000,0.000000,0.000000,0.000000,0.000000,0.000000,0.000000,0.000000,0.000000,0.000000,0.000000,0.000000,0.000000,0.000000,1,140325673285658,0.000000,0.000000,0.000000,0.000000,0.000000,0.000000,0.000000,0.000000,0.000000,0.000000,0.000000,0.000000,0.000000,0.000000,0.000000,0.000000,2,725871085,0.000000,0.000000,0.000000,0.000000,0.000000,0.000000,0.000000,0.000000,0.000000,0.000000,0.000000,0.000000,0.000000,0.000000,0.000000,0.000000,3,4195288,0.000000,0.000000,0.000000,0.000000,0.000000,0.000000,0.000000,0.000000,0.000000,0.000000,0.000000,0.000000,0.000000,0.000000,0.000000,0.000000,4,140325680855504,0.000000,0.000000,0.000000,0.000000,0.000000,0.000000,0.000000,0.000000,0.000000,0.000000,0.000000,0.000000,0.000000,0.000000,0.000000,0.000000,5,140325680850480,0.000000,0.000000,0.000000,0.000000,0.000000,0.000000,0.000000,0.000000,0.000000,0.000000,0.000000,0.000000,0.000000,0.000000,0.000000,0.000000,
0,7,0.000000,0.000000,0.000000,0.000000,0.000000,0.000000,0.000000,0.000000,0.000000,0.000000,0.000000,0.000000,0.000000,0.000000,0.000000,0.000000,1,140325673285658,0.000000,0.000000,0.000000,0.000000,0.000000,0.000000,0.000000,0.000000,0.000000,0.000000,0.000000,0.000000,0.000000,0.000000,0.000000,0.000000,2,725871085,0.000000,0.000000,0.000000,0.000000,0.000000,0.000000,0.000000,0.000000,0.000000,0.000000,0.000000,0.000000,0.000000,0.000000,0.000000,0.000000,3,4195288,0.000000,0.000000,0.000000,0.000000,0.000000,0.000000,0.000000,0.000000,0.000000,0.000000,0.000000,0.000000,0.000000,0.000000,0.000000,0.000000,4,140325680855504,0.000000,0.000000,0.000000,0.000000,0.000000,0.000000,0.000000,0.000000,0.000000,0.000000,0.000000,0.000000,0.000000,0.000000,0.000000,0.000000,5,140325680850480,0.000000,0.000000,0.000000,0.000000,0.000000,0.000000,0.000000,0.000000,0.000000,0.000000,0.000000,0.000000,0.000000,0.000000,0.000000,0.000000,
0,7,0.000000,0.000000,0.000000,0.000000,0.000000,0.000000,0.000000,0.000000,0.000000,0.000000,0.000000,0.000000,0.000000,0.000000,0.000000,0.000000,1,140325673285658,0.000000,0.000000,0.000000,0.000000,0.000000,0.000000,0.000000,0.000000,0.000000,0.000000,0.000000,0.000000,0.000000,0.000000,0.000000,0.000000,2,725871085,0.000000,0.000000,0.000000,0.000000,0.000000,0.000000,0.000000,0.000000,0.000000,0.000000,0.000000,0.000000,0.000000,0.000000,0.000000,0.000000,3,4195288,0.000000,0.000000,0.000000,0.000000,0.000000,0.000000,0.000000,0.000000,0.000000,0.000000,0.000000,0.000000,0.000000,0.000000,0.000000,0.000000,4,140325680855504,0.000000,0.000000,0.000000,0.000000,0.000000,0.000000,0.000000,0.000000,0.000000,0.000000,0.000000,0.000000,0.000000,0.000000,0.000000,0.000000,5,140325680850480,0.000000,0.000000,0.000000,0.000000,0.000000,0.000000,0.000000,0.000000,0.000000,0.000000,0.000000,0.000000,0.000000,0.000000,0.000000,0.000000,
0,7,0.000000,0.000000,0.000000,0.000000,0.000000,0.000000,0.000000,0.000000,0.000000,0.000000,0.000000,0.000000,0.000000,0.000000,0.000000,0.000000,1,140325673285658,0.000000,0.000000,0.000000,0.000000,0.000000,0.000000,0.000000,0.000000,0.000000,0.000000,0.000000,0.000000,0.000000,0.000000,0.000000,0.000000,2,725871085,0.000000,0.000000,0.000000,0.000000,0.000000,0.000000,0.000000,0.000000,0.000000,0.000000,0.000000,0.000000,0.000000,0.000000,0.000000,0.000000,3,4195288,0.000000,0.000000,0.000000,0.000000,0.000000,0.000000,0.000000,0.000000,0.000000,0.000000,0.000000,0.000000,0.000000,0.000000,0.000000,0.000000,4,140325680855504,0.000000,0.000000,0.000000,0.000000,0.000000,0.000000,0.000000,0.000000,0.000000,0.000000,0.000000,0.000000,0.000000,0.000000,0.000000,0.000000,5,140325680850480,0.000000,0.000000,0.000000,0.000000,0.000000,0.000000,0.000000,0.000000,0.000000,0.000000,0.000000,0.000000,0.000000,0.000000,0.000000,0.000000,
0,7,0.000000,0.000000,0.000000,0.000000,0.000000,0.000000,0.000000,0.000000,0.000000,0.000000,0.000000,0.000000,0.000000,0.000000,0.000000,0.000000,1,140325673285658,0.000000,0.000000,0.000000,0.000000,0.000000,0.000000,0.000000,0.000000,0.000000,0.000000,0.000000,0.000000,0.000000,0.000000,0.000000,0.000000,2,725871085,0.000000,0.000000,0.000000,0.000000,0.000000,0.000000,0.000000,0.000000,0.000000,0.000000,0.000000,0.000000,0.000000,0.000000,0.000000,0.000000,3,4195288,0.000000,0.000000,0.000000,0.000000,0.000000,0.000000,0.000000,0.000000,0.000000,0.000000,0.000000,0.000000,0.000000,0.000000,0.000000,0.000000,4,140325680855504,0.000000,0.000000,0.000000,0.000000,0.000000,0.000000,0.000000,0.000000,0.000000,0.000000,0.000000,0.000000,0.000000,0.000000,0.000000,0.000000,5,140325680850480,0.000000,0.000000,0.000000,0.000000,0.000000,0.000000,0.000000,0.000000,0.000000,0.000000,0.000000,0.000000,0.000000,0.000000,0.000000,0.000000,
0,7,0.000000,0.000000,0.000000,0.000000,0.000000,0.000000,0.000000,0.000000,0.000000,0.000000,0.000000,0.000000,0.000000,0.000000,0.000000,0.000000,1,140325673285658,0.000000,0.000000,0.000000,0.000000,0.000000,0.000000,0.000000,0.000000,0.000000,0.000000,0.000000,0.000000,0.000000,0.000000,0.000000,0.000000,2,725871085,0.000000,0.000000,0.000000,0.000000,0.000000,0.000000,0.000000,0.000000,0.000000,0.000000,0.000000,0.000000,0.000000,0.000000,0.000000,0.000000,3,4195288,0.000000,0.000000,0.000000,0.000000,0.000000,0.000000,0.000000,0.000000,0.000000,0.000000,0.000000,0.000000,0.000000,0.000000,0.000000,0.000000,4,140325680855504,0.000000,0.000000,0.000000,0.000000,0.000000,0.000000,0.000000,0.000000,0.000000,0.000000,0.000000,0.000000,0.000000,0.000000,0.000000,0.000000,5,140325680850480,0.000000,0.000000,0.000000,0.000000,0.000000,0.000000,0.000000,0.000000,0.000000,0.000000,0.000000,0.000000,0.000000,0.000000,0.000000,0.000000,
0,7,0.000000,0.000000,0.000000,0.000000,0.000000,0.000000,0.000000,0.000000,0.000000,0.000000,0.000000,0.000000,0.000000,0.000000,0.000000,0.000000,1,140325673285658,0.000000,0.000000,0.000000,0.000000,0.000000,0.000000,0.000000,0.000000,0.000000,0.000000,0.000000,0.000000,0.000000,0.000000,0.000000,0.000000,2,725871085,0.000000,0.000000,0.000000,0.000000,0.000000,0.000000,0.000000,0.000000,0.000000,0.000000,0.000000,0.000000,0.000000,0.000000,0.000000,0.000000,3,4195288,0.000000,0.000000,0.000000,0.000000,0.000000,0.000000,0.000000,0.000000,0.000000,0.000000,0.000000,0.000000,0.000000,0.000000,0.000000,0.000000,4,140325680855504,0.000000,0.000000,0.000000,0.000000,0.000000,0.000000,0.000000,0.000000,0.000000,0.000000,0.000000,0.000000,0.000000,0.000000,0.000000,0.000000,5,140325680850480,0.000000,0.000000,0.000000,0.000000,0.000000,0.000000,0.000000,0.000000,0.000000,0.000000,0.000000,0.000000,0.000000,0.000000,0.000000,0.000000,
0,7,0.000000,0.000000,0.000000,0.000000,0.000000,0.000000,0.000000,0.000000,0.000000,0.000000,0.000000,0.000000,0.000000,0.000000,0.000000,0.000000,1,140325673285658,0.000000,0.000000,0.000000,0.000000,0.000000,0.000000,0.000000,0.000000,0.000000,0.000000,0.000000,0.000000,0.000000,0.000000,0.000000,0.000000,2,725871085,0.000000,0.000000,0.000000,0.000000,0.000000,0.000000,0.000000,0.000000,0.000000,0.000000,0.000000,0.000000,0.000000,0.000000,0.000000,0.000000,3,4195288,0.000000,0.000000,0.000000,0.000000,0.000000,0.000000,0.000000,0.000000,0.000000,0.000000,0.000000,0.000000,0.000000,0.000000,0.000000,0.000000,4,140325680855504,0.000000,0.000000,0.000000,0.000000,0.000000,0.000000,0.000000,0.000000,0.000000,0.000000,0.000000,0.000000,0.000000,0.000000,0.000000,0.000000,5,140325680850480,0.000000,0.000000,0.000000,0.000000,0.000000,0.000000,0.000000,0.000000,0.000000,0.000000,0.000000,0.000000,0.000000,0.000000,0.000000,0.000000,
0,7,0.000000,0.000000,0.000000,0.000000,0.000000,0.000000,0.000000,0.000000,0.000000,0.000000,0.000000,0.000000,0.000000,0.000000,0.000000,0.000000,1,140325673285658,0.000000,0.000000,0.000000,0.000000,0.000000,0.000000,0.000000,0.000000,0.000000,0.000000,0.000000,0.000000,0.000000,0.000000,0.000000,0.000000,2,725871085,0.000000,0.000000,0.000000,0.000000,0.000000,0.000000,0.000000,0.000000,0.000000,0.000000,0.000000,0.000000,0.000000,0.000000,0.000000,0.000000,3,4195288,0.000000,0.000000,0.000000,0.000000,0.000000,0.000000,0.000000,0.000000,0.000000,0.000000,0.000000,0.000000,0.000000,0.000000,0.000000,0.000000,4,140325680855504,0.000000,0.000000,0.000000,0.000000,0.000000,0.000000,0.000000,0.000000,0.000000,0.000000,0.000000,0.000000,0.000000,0.000000,0.000000,0.000000,5,140325680850480,0.000000,0.000000,0.000000,0.000000,0.000000,0.000000,0.000000,0.000000,0.000000,0.000000,0.000000,0.000000,0.000000,0.000000,0.000000,0.000000,
0,7,0.000000,0.000000,0.000000,0.000000,0.000000,0.000000,0.000000,0.000000,0.000000,0.000000,0.000000,0.000000,0.000000,0.000000,0.000000,0.000000,1,140325673285658,0.000000,0.000000,0.000000,0.000000,0.000000,0.000000,0.000000,0.000000,0.000000,0.000000,0.000000,0.000000,0.000000,0.000000,0.000000,0.000000,2,725871085,0.000000,0.000000,0.000000,0.000000,0.000000,0.000000,0.000000,0.000000,0.000000,0.000000,0.000000,0.000000,0.000000,0.000000,0.000000,0.000000,3,4195288,0.000000,0.000000,0.000000,0.000000,0.000000,0.000000,0.000000,0.000000,0.000000,0.000000,0.000000,0.000000,0.000000,0.000000,0.000000,0.000000,4,140325680855504,0.000000,0.000000,0.000000,0.000000,0.000000,0.000000,0.000000,0.000000,0.000000,0.000000,0.000000,0.000000,0.000000,0.000000,0.000000,0.000000,5,140325680850480,0.000000,0.000000,0.000000,0.000000,0.000000,0.000000,0.000000,0.000000,0.000000,0.000000,0.000000,0.000000,0.000000,0.000000,0.000000,0.000000,
0,7,0.000000,0.000000,0.000000,0.000000,0.000000,0.000000,0.000000,0.000000,0.000000,0.000000,0.000000,0.000000,0.000000,0.000000,0.000000,0.000000,1,140325673285658,0.000000,0.000000,0.000000,0.000000,0.000000,0.000000,0.000000,0.000000,0.000000,0.000000,0.000000,0.000000,0.000000,0.000000,0.000000,0.000000,2,725871085,0.000000,0.000000,0.000000,0.000000,0.000000,0.000000,0.000000,0.000000,0.000000,0.000000,0.000000,0.000000,0.000000,0.000000,0.000000,0.000000,3,4195288,0.000000,0.000000,0.000000,0.000000,0.000000,0.000000,0.000000,0.000000,0.000000,0.000000,0.000000,0.000000,0.000000,0.000000,0.000000,0.000000,4,140325680855504,0.000000,0.000000,0.000000,0.000000,0.000000,0.000000,0.000000,0.000000,0.000000,0.000000,0.000000,0.000000,0.000000,0.000000,0.000000,0.000000,5,140325680850480,0.000000,0.000000,0.000000,0.000000,0.000000,0.000000,0.000000,0.000000,0.000000,0.000000,0.000000,0.000000,0.000000,0.000000,0.000000,0.000000,
0,7,0.000000,0.000000,0.000000,0.000000,0.000000,0.000000,0.000000,0.000000,0.000000,0.000000,0.000000,0.000000,0.000000,0.000000,0.000000,0.000000,1,140325673285658,0.000000,0.000000,0.000000,0.000000,0.000000,0.000000,0.000000,0.000000,0.000000,0.000000,0.000000,0.000000,0.000000,0.000000,0.000000,0.000000,2,725871085,0.000000,0.000000,0.000000,0.000000,0.000000,0.000000,0.000000,0.000000,0.000000,0.000000,0.000000,0.000000,0.000000,0.000000,0.000000,0.000000,3,4195288,0.000000,0.000000,0.000000,0.000000,0.000000,0.000000,0.000000,0.000000,0.000000,0.000000,0.000000,0.000000,0.000000,0.000000,0.000000,0.000000,4,140325680855504,0.000000,0.000000,0.000000,0.000000,0.000000,0.000000,0.000000,0.000000,0.000000,0.000000,0.000000,0.000000,0.000000,0.000000,0.000000,0.000000,5,140325680850480,0.000000,0.000000,0.000000,0.000000,0.000000,0.000000,0.000000,0.000000,0.000000,0.000000,0.000000,0.000000,0.000000,0.000000,0.000000,0.000000,
0,7,0.000000,0.000000,0.000000,0.000000,0.000000,0.000000,0.000000,0.000000,0.000000,0.000000,0.000000,0.000000,0.000000,0.000000,0.000000,0.000000,1,140325673285658,0.000000,0.000000,0.000000,0.000000,0.000000,0.000000,0.000000,0.000000,0.000000,0.000000,0.000000,0.000000,0.000000,0.000000,0.000000,0.000000,2,725871085,0.000000,0.000000,0.000000,0.000000,0.000000,0.000000,0.000000,0.000000,0.000000,0.000000,0.000000,0.000000,0.000000,0.000000,0.000000,0.000000,3,4195288,0.000000,0.000000,0.000000,0.000000,0.000000,0.000000,0.000000,0.000000,0.000000,0.000000,0.000000,0.000000,0.000000,0.000000,0.000000,0.000000,4,140325680855504,0.000000,0.000000,0.000000,0.000000,0.000000,0.000000,0.000000,0.000000,0.000000,0.000000,0.000000,0.000000,0.000000,0.000000,0.000000,0.000000,5,140325680850480,0.000000,0.000000,0.000000,0.000000,0.000000,0.000000,0.000000,0.000000,0.000000,0.000000,0.000000,0.000000,0.000000,0.000000,0.000000,0.000000,
0,7,0.000000,0.000000,0.000000,0.000000,0.000000,0.000000,0.000000,0.000000,0.000000,0.000000,0.000000,0.000000,0.000000,0.000000,0.000000,0.000000,1,140325673285658,0.000000,0.000000,0.000000,0.000000,0.000000,0.000000,0.000000,0.000000,0.000000,0.000000,0.000000,0.000000,0.000000,0.000000,0.000000,0.000000,2,725871085,0.000000,0.000000,0.000000,0.000000,0.000000,0.000000,0.000000,0.000000,0.000000,0.000000,0.000000,0.000000,0.000000,0.000000,0.000000,0.000000,3,4195288,0.000000,0.000000,0.000000,0.000000,0.000000,0.000000,0.000000,0.000000,0.000000,0.000000,0.000000,0.000000,0.000000,0.000000,0.000000,0.000000,4,140325680855504,0.000000,0.000000,0.000000,0.000000,0.000000,0.000000,0.000000,0.000000,0.000000,0.000000,0.000000,0.000000,0.000000,0.000000,0.000000,0.000000,5,140325680850480,0.000000,0.000000,0.000000,0.000000,0.000000,0.000000,0.000000,0.000000,0.000000,0.000000,0.000000,0.000000,0.000000,0.000000,0.000000,0.000000,
0,7,0.000000,0.000000,0.000000,0.000000,0.000000,0.000000,0.000000,0.000000,0.000000,0.000000,0.000000,0.000000,0.000000,0.000000,0.000000,0.000000,1,140325673285658,0.000000,0.000000,0.000000,0.000000,0.000000,0.000000,0.000000,0.000000,0.000000,0.000000,0.000000,0.000000,0.000000,0.000000,0.000000,0.000000,2,725871085,0.000000,0.000000,0.000000,0.000000,0.000000,0.000000,0.000000,0.000000,0.000000,0.000000,0.000000,0.000000,0.000000,0.000000,0.000000,0.000000,3,4195288,0.000000,0.000000,0.000000,0.000000,0.000000,0.000000,0.000000,0.000000,0.000000,0.000000,0.000000,0.000000,0.000000,0.000000,0.000000,0.000000,4,140325680855504,0.000000,0.000000,0.000000,0.000000,0.000000,0.000000,0.000000,0.000000,0.000000,0.000000,0.000000,0.000000,0.000000,0.000000,0.000000,0.000000,5,140325680850480,0.000000,0.000000,0.000000,0.000000,0.000000,0.000000,0.000000,0.000000,0.000000,0.000000,0.000000,0.000000,0.000000,0.000000,0.000000,0.000000,
0,7,0.000000,0.000000,0.000000,0.000000,0.000000,0.000000,0.000000,0.000000,0.000000,0.000000,0.000000,0.000000,0.000000,0.000000,0.000000,0.000000,1,140325673285658,0.000000,0.000000,0.000000,0.000000,0.000000,0.000000,0.000000,0.000000,0.000000,0.000000,0.000000,0.000000,0.000000,0.000000,0.000000,0.000000,2,725871085,0.000000,0.000000,0.000000,0.000000,0.000000,0.000000,0.000000,0.000000,0.000000,0.000000,0.000000,0.000000,0.000000,0.000000,0.000000,0.000000,3,4195288,0.000000,0.000000,0.000000,0.000000,0.000000,0.000000,0.000000,0.000000,0.000000,0.000000,0.000000,0.000000,0.000000,0.000000,0.000000,0.000000,4,140325680855504,0.000000,0.000000,0.000000,0.000000,0.000000,0.000000,0.000000,0.000000,0.000000,0.000000,0.000000,0.000000,0.000000,0.000000,0.000000,0.000000,5,140325680850480,0.000000,0.000000,0.000000,0.000000,0.000000,0.000000,0.000000,0.000000,0.000000,0.000000,0.000000,0.000000,0.000000,0.000000,0.000000,0.000000,
0,7,0.000000,0.000000,0.000000,0.000000,0.000000,0.000000,0.000000,0.000000,0.000000,0.000000,0.000000,0.000000,0.000000,0.000000,0.000000,0.000000,1,140325673285658,0.000000,0.000000,0.000000,0.000000,0.000000,0.000000,0.000000,0.000000,0.000000,0.000000,0.000000,0.000000,0.000000,0.000000,0.000000,0.000000,2,725871085,0.000000,0.000000,0.000000,0.000000,0.000000,0.000000,0.000000,0.000000,0.000000,0.000000,0.000000,0.000000,0.000000,0.000000,0.000000,0.000000,3,4195288,0.000000,0.000000,0.000000,0.000000,0.000000,0.000000,0.000000,0.000000,0.000000,0.000000,0.000000,0.000000,0.000000,0.000000,0.000000,0.000000,4,140325680855504,0.000000,0.000000,0.000000,0.000000,0.000000,0.000000,0.000000,0.000000,0.000000,0.000000,0.000000,0.000000,0.000000,0.000000,0.000000,0.000000,5,140325680850480,0.000000,0.000000,0.000000,0.000000,0.000000,0.000000,0.000000,0.000000,0.000000,0.000000,0.000000,0.000000,0.000000,0.000000,0.000000,0.000000,
0,7,0.000000,0.000000,0.000000,0.000000,0.000000,0.000000,0.000000,0.000000,0.000000,0.000000,0.000000,0.000000,0.000000,0.000000,0.000000,0.000000,1,140325673285658,0.000000,0.000000,0.000000,0.000000,0.000000,0.000000,0.000000,0.000000,0.000000,0.000000,0.000000,0.000000,0.000000,0.000000,0.000000,0.000000,2,725871085,0.000000,0.000000,0.000000,0.000000,0.000000,0.000000,0.000000,0.000000,0.000000,0.000000,0.000000,0.000000,0.000000,0.000000,0.000000,0.000000,3,4195288,0.000000,0.000000,0.000000,0.000000,0.000000,0.000000,0.000000,0.000000,0.000000,0.000000,0.000000,0.000000,0.000000,0.000000,0.000000,0.000000,4,140325680855504,0.000000,0.000000,0.000000,0.000000,0.000000,0.000000,0.000000,0.000000,0.000000,0.000000,0.000000,0.000000,0.000000,0.000000,0.000000,0.000000,5,140325680850480,0.000000,0.000000,0.000000,0.000000,0.000000,0.000000,0.000000,0.000000,0.000000,0.000000,0.000000,0.000000,0.000000,0.000000,0.000000,0.000000,
0,7,0.000000,0.000000,0.000000,0.000000,0.000000,0.000000,0.000000,0.000000,0.000000,0.000000,0.000000,0.000000,0.000000,0.000000,0.000000,0.000000,1,140325673285658,0.000000,0.000000,0.000000,0.000000,0.000000,0.000000,0.000000,0.000000,0.000000,0.000000,0.000000,0.000000,0.000000,0.000000,0.000000,0.000000,2,725871085,0.000000,0.000000,0.000000,0.000000,0.000000,0.000000,0.000000,0.000000,0.000000,0.000000,0.000000,0.000000,0.000000,0.000000,0.000000,0.000000,3,4195288,0.000000,0.000000,0.000000,0.000000,0.000000,0.000000,0.000000,0.000000,0.000000,0.000000,0.000000,0.000000,0.000000,0.000000,0.000000,0.000000,4,140325680855504,0.000000,0.000000,0.000000,0.000000,0.000000,0.000000,0.000000,0.000000,0.000000,0.000000,0.000000,0.000000,0.000000,0.000000,0.000000,0.000000,5,140325680850480,0.000000,0.000000,0.000000,0.000000,0.000000,0.000000,0.000000,0.000000,0.000000,0.000000,0.000000,0.000000,0.000000,0.000000,0.000000,0.000000,
0,7,0.000000,0.000000,0.000000,0.000000,0.000000,0.000000,0.000000,0.000000,0.000000,0.000000,0.000000,0.000000,0.000000,0.000000,0.000000,0.000000,1,140325673285658,0.000000,0.000000,0.000000,0.000000,0.000000,0.000000,0.000000,0.000000,0.000000,0.000000,0.000000,0.000000,0.000000,0.000000,0.000000,0.000000,2,725871085,0.000000,0.000000,0.000000,0.000000,0.000000,0.000000,0.000000,0.000000,0.000000,0.000000,0.000000,0.000000,0.000000,0.000000,0.000000,0.000000,3,4195288,0.000000,0.000000,0.000000,0.000000,0.000000,0.000000,0.000000,0.000000,0.000000,0.000000,0.000000,0.000000,0.000000,0.000000,0.000000,0.000000,4,140325680855504,0.000000,0.000000,0.000000,0.000000,0.000000,0.000000,0.000000,0.000000,0.000000,0.000000,0.000000,0.000000,0.000000,0.000000,0.000000,0.000000,5,140325680850480,0.000000,0.000000,0.000000,0.000000,0.000000,0.000000,0.000000,0.000000,0.000000,0.000000,0.000000,0.000000,0.000000,0.000000,0.000000,0.000000,
0,7,0.000000,0.000000,0.000000,0.000000,0.000000,0.000000,0.000000,0.000000,0.000000,0.000000,0.000000,0.000000,0.000000,0.000000,0.000000,0.000000,1,140325673285658,0.000000,0.000000,0.000000,0.000000,0.000000,0.000000,0.000000,0.000000,0.000000,0.000000,0.000000,0.000000,0.000000,0.000000,0.000000,0.000000,2,725871085,0.000000,0.000000,0.000000,0.000000,0.000000,0.000000,0.000000,0.000000,0.000000,0.000000,0.000000,0.000000,0.000000,0.000000,0.000000,0.000000,3,4195288,0.000000,0.000000,0.000000,0.000000,0.000000,0.000000,0.000000,0.000000,0.000000,0.000000,0.000000,0.000000,0.000000,0.000000,0.000000,0.000000,4,140325680855504,0.000000,0.000000,0.000000,0.000000,0.000000,0.000000,0.000000,0.000000,0.000000,0.000000,0.000000,0.000000,0.000000,0.000000,0.000000,0.000000,5,140325680850480,0.000000,0.000000,0.000000,0.000000,0.000000,0.000000,0.000000,0.000000,0.000000,0.000000,0.000000,0.000000,0.000000,0.000000,0.000000,0.000000,
0,7,0.000000,0.000000,0.000000,0.000000,0.000000,0.000000,0.000000,0.000000,0.000000,0.000000,0.000000,0.000000,0.000000,0.000000,0.000000,0.000000,1,140325673285658,0.000000,0.000000,0.000000,0.000000,0.000000,0.000000,0.000000,0.000000,0.000000,0.000000,0.000000,0.000000,0.000000,0.000000,0.000000,0.000000,2,725871085,0.000000,0.000000,0.000000,0.000000,0.000000,0.000000,0.000000,0.000000,0.000000,0.000000,0.000000,0.000000,0.000000,0.000000,0.000000,0.000000,3,4195288,0.000000,0.000000,0.000000,0.000000,0.000000,0.000000,0.000000,0.000000,0.000000,0.000000,0.000000,0.000000,0.000000,0.000000,0.000000,0.000000,4,140325680855504,0.000000,0.000000,0.000000,0.000000,0.000000,0.000000,0.000000,0.000000,0.000000,0.000000,0.000000,0.000000,0.000000,0.000000,0.000000,0.000000,5,140325680850480,0.000000,0.000000,0.000000,0.000000,0.000000,0.000000,0.000000,0.000000,0.000000,0.000000,0.000000,0.000000,0.000000,0.000000,0.000000,0.000000,
0,7,0.000000,0.000000,0.000000,0.000000,0.000000,0.000000,0.000000,0.000000,0.000000,0.000000,0.000000,0.000000,0.000000,0.000000,0.000000,0.000000,1,140325673285658,0.000000,0.000000,0.000000,0.000000,0.000000,0.000000,0.000000,0.000000,0.000000,0.000000,0.000000,0.000000,0.000000,0.000000,0.000000,0.000000,2,725871085,0.000000,0.000000,0.000000,0.000000,0.000000,0.000000,0.000000,0.000000,0.000000,0.000000,0.000000,0.000000,0.000000,0.000000,0.000000,0.000000,3,4195288,0.000000,0.000000,0.000000,0.000000,0.000000,0.000000,0.000000,0.000000,0.000000,0.000000,0.000000,0.000000,0.000000,0.000000,0.000000,0.000000,4,140325680855504,0.000000,0.000000,0.000000,0.000000,0.000000,0.000000,0.000000,0.000000,0.000000,0.000000,0.000000,0.000000,0.000000,0.000000,0.000000,0.000000,5,140325680850480,0.000000,0.000000,0.000000,0.000000,0.000000,0.000000,0.000000,0.000000,0.000000,0.000000,0.000000,0.000000,0.000000,0.000000,0.000000,0.000000,
0,7,0.000000,0.000000,0.000000,0.000000,0.000000,0.000000,0.000000,0.000000,0.000000,0.000000,0.000000,0.000000,0.000000,0.000000,0.000000,0.000000,1,140325673285658,0.000000,0.000000,0.000000,0.000000,0.000000,0.000000,0.000000,0.000000,0.000000,0.000000,0.000000,0.000000,0.000000,0.000000,0.000000,0.000000,2,725871085,0.000000,0.000000,0.000000,0.000000,0.000000,0.000000,0.000000,0.000000,0.000000,0.000000,0.000000,0.000000,0.000000,0.000000,0.000000,0.000000,3,4195288,0.000000,0.000000,0.000000,0.000000,0.000000,0.000000,0.000000,0.000000,0.000000,0.000000,0.000000,0.000000,0.000000,0.000000,0.000000,0.000000,4,140325680855504,0.000000,0.000000,0.000000,0.000000,0.000000,0.000000,0.000000,0.000000,0.000000,0.000000,0.000000,0.000000,0.000000,0.000000,0.000000,0.000000,5,140325680850480,0.000000,0.000000,0.000000,0.000000,0.000000,0.000000,0.000000,0.000000,0.000000,0.000000,0.000000,0.000000,0.000000,0.000000,0.000000,0.000000,
0,7,0.000000,0.000000,0.000000,0.000000,0.000000,0.000000,0.000000,0.000000,0.000000,0.000000,0.000000,0.000000,0.000000,0.000000,0.000000,0.000000,1,140325673285658,0.000000,0.000000,0.000000,0.000000,0.000000,0.000000,0.000000,0.000000,0.000000,0.000000,0.000000,0.000000,0.000000,0.000000,0.000000,0.000000,2,725871085,0.000000,0.000000,0.000000,0.000000,0.000000,0.000000,0.000000,0.000000,0.000000,0.000000,0.000000,0.000000,0.000000,0.000000,0.000000,0.000000,3,4195288,0.000000,0.000000,0.000000,0.000000,0.000000,0.000000,0.000000,0.000000,0.000000,0.000000,0.000000,0.000000,0.000000,0.000000,0.000000,0.000000,4,140325680855504,0.000000,0.000000,0.000000,0.000000,0.000000,0.000000,0.000000,0.000000,0.000000,0.000000,0.000000,0.000000,0.000000,0.000000,0.000000,0.000000,5,140325680850480,0.000000,0.000000,0.000000,0.000000,0.000000,0.000000,0.000000,0.000000,0.000000,0.000000,0.000000,0.000000,0.000000,0.000000,0.000000,0.000000,
0,7,0.000000,0.000000,0.000000,0.000000,0.000000,0.000000,0.000000,0.000000,0.000000,0.000000,0.000000,0.000000,0.000000,0.000000,0.000000,0.000000,1,140325673285658,0.000000,0.000000,0.000000,0.000000,0.000000,0.000000,0.000000,0.000000,0.000000,0.000000,0.000000,0.000000,0.000000,0.000000,0.000000,0.000000,2,725871085,0.000000,0.000000,0.000000,0.000000,0.000000,0.000000,0.000000,0.000000,0.000000,0.000000,0.000000,0.000000,0.000000,0.000000,0.000000,0.000000,3,4195288,0.000000,0.000000,0.000000,0.000000,0.000000,0.000000,0.000000,0.000000,0.000000,0.000000,0.000000,0.000000,0.000000,0.000000,0.000000,0.000000,4,140325680855504,0.000000,0.000000,0.000000,0.000000,0.000000,0.000000,0.000000,0.000000,0.000000,0.000000,0.000000,0.000000,0.000000,0.000000,0.000000,0.000000,5,140325680850480,0.000000,0.000000,0.000000,0.000000,0.000000,0.000000,0.000000,0.000000,0.000000,0.000000,0.000000,0.000000,0.000000,0.000000,0.000000,0.000000,
0,48448122,-0.755873,151.711345,-1056.871665,-0.045749,6.713319,-46.963357,-0.008545,0.148438,-1.049805,23.400588,8.453566,-70.913487,-17.651691,0.106870,-1.625954,-0.465649,1,48455649,-972.785516,-0.063111,-177.227459,-43.470435,-0.072748,-8.024545,-0.975098,-0.006592,-0.188232,24.953529,-102.455642,52.715784,-160.977877,-2.267176,0.595420,-3.351145,2,48463241,245.817057,-991.151887,354.842154,10.810666,-43.961740,15.721199,0.229736,-0.957031,0.327637,24.012353,59.972132,76.952909,49.674832,0.389313,1.526718,1.763359,3,48470754,-996.032903,25.565861,145.734482,-44.305276,1.041093,6.579441,-1.013184,0.000732,0.209473,23.165294,189.699089,69.412719,-65.482456,4.870229,0.358779,0.068702,4,48478214,22.652507,158.595171,893.590455,0.956606,7.040384,39.725070,-0.025879,0.077637,0.889160,22.977059,49.939583,82.514237,-166.785237,0.732824,2.083969,-3.328244,5,48485618,-121.801724,-1001.061565,-38.263650,-5.423407,-44.518800,-1.621523,-0.128418,-0.972900,-0.036865,24.718235,-60.120715,25.883162,-59.470931,-0.961832,0.557252,-2.954198,
0,48448122,-0.755873,151.711345,-1056.871665,-0.045749,6.713319,-46.963357,-0.008545,0.148438,-1.049805,23.400588,8.453566,-70.913487,-17.651691,0.106870,-1.625954,-0.465649,1,48455649,-972.785516,-0.063111,-177.227459,-43.470435,-0.072748,-8.024545,-0.975098,-0.006592,-0.188232,24.953529,-102.455642,52.715784,-160.977877,-2.267176,0.595420,-3.351145,2,48463241,245.817057,-991.151887,354.842154,10.810666,-43.961740,15.721199,0.229736,-0.957031,0.327637,24.012353,59.972132,76.952909,49.674832,0.389313,1.526718,1.763359,3,48470754,-996.032903,25.565861,145.734482,-44.305276,1.041093,6.579441,-1.013184,0.000732,0.209473,23.165294,189.699089,69.412719,-65.482456,4.870229,0.358779,0.068702,4,48478214,22.652507,158.595171,893.590455,0.956606,7.040384,39.725070,-0.025879,0.077637,0.889160,22.977059,49.939583,82.514237,-166.785237,0.732824,2.083969,-3.328244,5,48485618,-121.801724,-1001.061565,-38.263650,-5.423407,-44.518800,-1.621523,-0.128418,-0.972900,-0.036865,24.718235,-60.120715,25.883162,-59.470931,-0.961832,0.557252,-2.954198,
0,48448122,-0.755873,151.711345,-1056.871665,-0.045749,6.713319,-46.963357,-0.008545,0.148438,-1.049805,23.400588,8.453566,-70.913487,-17.651691,0.106870,-1.625954,-0.465649,1,48455649,-972.785516,-0.063111,-177.227459,-43.470435,-0.072748,-8.024545,-0.975098,-0.006592,-0.188232,24.953529,-102.455642,52.715784,-160.977877,-2.267176,0.595420,-3.351145,2,48463241,245.817057,-991.151887,354.842154,10.810666,-43.961740,15.721199,0.229736,-0.957031,0.327637,24.012353,59.972132,76.952909,49.674832,0.389313,1.526718,1.763359,3,48470754,-996.032903,25.565861,145.734482,-44.305276,1.041093,6.579441,-1.013184,0.000732,0.209473,23.165294,189.699089,69.412719,-65.482456,4.870229,0.358779,0.068702,4,48478214,22.652507,158.595171,893.590455,0.956606,7.040384,39.725070,-0.025879,0.077637,0.889160,22.977059,49.939583,82.514237,-166.785237,0.732824,2.083969,-3.328244,5,48485618,-121.801724,-1001.061565,-38.263650,-5.423407,-44.518800,-1.621523,-0.128418,-0.972900,-0.036865,24.718235,-60.120715,25.883162,-59.470931,-0.961832,0.557252,-2.954198,
0,48448122,-0.755873,151.711345,-1056.871665,-0.045749,6.713319,-46.963357,-0.008545,0.148438,-1.049805,23.400588,8.453566,-70.913487,-17.651691,0.106870,-1.625954,-0.465649,1,48455649,-972.785516,-0.063111,-177.227459,-43.470435,-0.072748,-8.024545,-0.975098,-0.006592,-0.188232,24.953529,-102.455642,52.715784,-160.977877,-2.267176,0.595420,-3.351145,2,48463241,245.817057,-991.151887,354.842154,10.810666,-43.961740,15.721199,0.229736,-0.957031,0.327637,24.012353,59.972132,76.952909,49.674832,0.389313,1.526718,1.763359,3,48470754,-996.032903,25.565861,145.734482,-44.305276,1.041093,6.579441,-1.013184,0.000732,0.209473,23.165294,189.699089,69.412719,-65.482456,4.870229,0.358779,0.068702,4,48478214,22.652507,158.595171,893.590455,0.956606,7.040384,39.725070,-0.025879,0.077637,0.889160,22.977059,49.939583,82.514237,-166.785237,0.732824,2.083969,-3.328244,5,48485618,-121.801724,-1001.061565,-38.263650,-5.423407,-44.518800,-1.621523,-0.128418,-0.972900,-0.036865,24.718235,-60.120715,25.883162,-59.470931,-0.961832,0.557252,-2.954198,
0,48448122,-0.755873,151.711345,-1056.871665,-0.045749,6.713319,-46.963357,-0.008545,0.148438,-1.049805,23.400588,8.453566,-70.913487,-17.651691,0.106870,-1.625954,-0.465649,1,48455649,-972.785516,-0.063111,-177.227459,-43.470435,-0.072748,-8.024545,-0.975098,-0.006592,-0.188232,24.953529,-102.455642,52.715784,-160.977877,-2.267176,0.595420,-3.351145,2,48463241,245.817057,-991.151887,354.842154,10.810666,-43.961740,15.721199,0.229736,-0.957031,0.327637,24.012353,59.972132,76.952909,49.674832,0.389313,1.526718,1.763359,3,48470754,-996.032903,25.565861,145.734482,-44.305276,1.041093,6.579441,-1.013184,0.000732,0.209473,23.165294,189.699089,69.412719,-65.482456,4.870229,0.358779,0.068702,4,48478214,22.652507,158.595171,893.590455,0.956606,7.040384,39.725070,-0.025879,0.077637,0.889160,22.977059,49.939583,82.514237,-166.785237,0.732824,2.083969,-3.328244,5,48485618,-121.801724,-1001.061565,-38.263650,-5.423407,-44.518800,-1.621523,-0.128418,-0.972900,-0.036865,24.718235,-60.120715,25.883162,-59.470931,-0.961832,0.557252,-2.954198,
0,48448122,-0.755873,151.711345,-1056.871665,-0.045749,6.713319,-46.963357,-0.008545,0.148438,-1.049805,23.400588,8.453566,-70.913487,-17.651691,0.106870,-1.625954,-0.465649,1,48455649,-972.785516,-0.063111,-177.227459,-43.470435,-0.072748,-8.024545,-0.975098,-0.006592,-0.188232,24.953529,-102.455642,52.715784,-160.977877,-2.267176,0.595420,-3.351145,2,48463241,245.817057,-991.151887,354.842154,10.810666,-43.961740,15.721199,0.229736,-0.957031,0.327637,24.012353,59.972132,76.952909,49.674832,0.389313,1.526718,1.763359,3,48470754,-996.032903,25.565861,145.734482,-44.305276,1.041093,6.579441,-1.013184,0.000732,0.209473,23.165294,189.699089,69.412719,-65.482456,4.870229,0.358779,0.068702,4,48478214,22.652507,158.595171,893.590455,0.956606,7.040384,39.725070,-0.025879,0.077637,0.889160,22.977059,49.939583,82.514237,-166.785237,0.732824,2.083969,-3.328244,5,48485618,-121.801724,-1001.061565,-38.263650,-5.423407,-44.518800,-1.621523,-0.128418,-0.972900,-0.036865,24.718235,-60.120715,25.883162,-59.470931,-0.961832,0.557252,-2.954198,
0,48448122,-0.755873,151.711345,-1056.871665,-0.045749,6.713319,-46.963357,-0.008545,0.148438,-1.049805,23.400588,8.453566,-70.913487,-17.651691,0.106870,-1.625954,-0.465649,1,48455649,-972.785516,-0.063111,-177.227459,-43.470435,-0.072748,-8.024545,-0.975098,-0.006592,-0.188232,24.953529,-102.455642,52.715784,-160.977877,-2.267176,0.595420,-3.351145,2,48463241,245.817057,-991.151887,354.842154,10.810666,-43.961740,15.721199,0.229736,-0.957031,0.327637,24.012353,59.972132,76.952909,49.674832,0.389313,1.526718,1.763359,3,48470754,-996.032903,25.565861,145.734482,-44.305276,1.041093,6.579441,-1.013184,0.000732,0.209473,23.165294,189.699089,69.412719,-65.482456,4.870229,0.358779,0.068702,4,48478214,22.652507,158.595171,893.590455,0.956606,7.040384,39.725070,-0.025879,0.077637,0.889160,22.977059,49.939583,82.514237,-166.785237,0.732824,2.083969,-3.328244,5,48485618,-121.801724,-1001.061565,-38.263650,-5.423407,-44.518800,-1.621523,-0.128418,-0.972900,-0.036865,24.718235,-60.120715,25.883162,-59.470931,-0.961832,0.557252,-2.954198,
0,48448122,-0.755873,151.711345,-1056.871665,-0.045749,6.713319,-46.963357,-0.008545,0.148438,-1.049805,23.400588,8.453566,-70.913487,-17.651691,0.106870,-1.625954,-0.465649,1,48455649,-972.785516,-0.063111,-177.227459,-43.470435,-0.072748,-8.024545,-0.975098,-0.006592,-0.188232,24.953529,-102.455642,52.715784,-160.977877,-2.267176,0.595420,-3.351145,2,48463241,245.817057,-991.151887,354.842154,10.810666,-43.961740,15.721199,0.229736,-0.957031,0.327637,24.012353,59.972132,76.952909,49.674832,0.389313,1.526718,1.763359,3,48470754,-996.032903,25.565861,145.734482,-44.305276,1.041093,6.579441,-1.013184,0.000732,0.209473,23.165294,189.699089,69.412719,-65.482456,4.870229,0.358779,0.068702,4,48478214,22.652507,158.595171,893.590455,0.956606,7.040384,39.725070,-0.025879,0.077637,0.889160,22.977059,49.939583,82.514237,-166.785237,0.732824,2.083969,-3.328244,5,48485618,-121.801724,-1001.061565,-38.263650,-5.423407,-44.518800,-1.621523,-0.128418,-0.972900,-0.036865,24.718235,-60.120715,25.883162,-59.470931,-0.961832,0.557252,-2.954198,
0,48448122,-0.755873,151.711345,-1056.871665,-0.045749,6.713319,-46.963357,-0.008545,0.148438,-1.049805,23.400588,8.453566,-70.913487,-17.651691,0.106870,-1.625954,-0.465649,1,48455649,-972.785516,-0.063111,-177.227459,-43.470435,-0.072748,-8.024545,-0.975098,-0.006592,-0.188232,24.953529,-102.455642,52.715784,-160.977877,-2.267176,0.595420,-3.351145,2,48463241,245.817057,-991.151887,354.842154,10.810666,-43.961740,15.721199,0.229736,-0.957031,0.327637,24.012353,59.972132,76.952909,49.674832,0.389313,1.526718,1.763359,3,48470754,-996.032903,25.565861,145.734482,-44.305276,1.041093,6.579441,-1.013184,0.000732,0.209473,23.165294,189.699089,69.412719,-65.482456,4.870229,0.358779,0.068702,4,48478214,22.652507,158.595171,893.590455,0.956606,7.040384,39.725070,-0.025879,0.077637,0.889160,22.977059,49.939583,82.514237,-166.785237,0.732824,2.083969,-3.328244,5,48485618,-121.801724,-1001.061565,-38.263650,-5.423407,-44.518800,-1.621523,-0.128418,-0.972900,-0.036865,24.718235,-60.120715,25.883162,-59.470931,-0.961832,0.557252,-2.954198,
0,48448122,-0.755873,151.711345,-1056.871665,-0.045749,6.713319,-46.963357,-0.008545,0.148438,-1.049805,23.400588,8.453566,-70.913487,-17.651691,0.106870,-1.625954,-0.465649,1,48455649,-972.785516,-0.063111,-177.227459,-43.470435,-0.072748,-8.024545,-0.975098,-0.006592,-0.188232,24.953529,-102.455642,52.715784,-160.977877,-2.267176,0.595420,-3.351145,2,48463241,245.817057,-991.151887,354.842154,10.810666,-43.961740,15.721199,0.229736,-0.957031,0.327637,24.012353,59.972132,76.952909,49.674832,0.389313,1.526718,1.763359,3,48470754,-996.032903,25.565861,145.734482,-44.305276,1.041093,6.579441,-1.013184,0.000732,0.209473,23.165294,189.699089,69.412719,-65.482456,4.870229,0.358779,0.068702,4,48478214,22.652507,158.595171,893.590455,0.956606,7.040384,39.725070,-0.025879,0.077637,0.889160,22.977059,49.939583,82.514237,-166.785237,0.732824,2.083969,-3.328244,5,48485618,-121.801724,-1001.061565,-38.263650,-5.423407,-44.518800,-1.621523,-0.128418,-0.972900,-0.036865,24.718235,-60.120715,25.883162,-59.470931,-0.961832,0.557252,-2.954198,
0,48448122,-0.755873,151.711345,-1056.871665,-0.045749,6.713319,-46.963357,-0.008545,0.148438,-1.049805,23.400588,8.453566,-70.913487,-17.651691,0.106870,-1.625954,-0.465649,1,48455649,-972.785516,-0.063111,-177.227459,-43.470435,-0.072748,-8.024545,-0.975098,-0.006592,-0.188232,24.953529,-102.455642,52.715784,-160.977877,-2.267176,0.595420,-3.351145,2,48463241,245.817057,-991.151887,354.842154,10.810666,-43.961740,15.721199,0.229736,-0.957031,0.327637,24.012353,59.972132,76.952909,49.674832,0.389313,1.526718,1.763359,3,48470754,-996.032903,25.565861,145.734482,-44.305276,1.041093,6.579441,-1.013184,0.000732,0.209473,23.165294,189.699089,69.412719,-65.482456,4.870229,0.358779,0.068702,4,48478214,22.652507,158.595171,893.590455,0.956606,7.040384,39.725070,-0.025879,0.077637,0.889160,22.977059,49.939583,82.514237,-166.785237,0.732824,2.083969,-3.328244,5,48485618,-121.801724,-1001.061565,-38.263650,-5.423407,-44.518800,-1.621523,-0.128418,-0.972900,-0.036865,24.718235,-60.120715,25.883162,-59.470931,-0.961832,0.557252,-2.954198,
0,48448122,-0.755873,151.711345,-1056.871665,-0.045749,6.713319,-46.963357,-0.008545,0.148438,-1.049805,23.400588,8.453566,-70.913487,-17.651691,0.106870,-1.625954,-0.465649,1,48455649,-972.785516,-0.063111,-177.227459,-43.470435,-0.072748,-8.024545,-0.975098,-0.006592,-0.188232,24.953529,-102.455642,52.715784,-160.977877,-2.267176,0.595420,-3.351145,2,48463241,245.817057,-991.151887,354.842154,10.810666,-43.961740,15.721199,0.229736,-0.957031,0.327637,24.012353,59.972132,76.952909,49.674832,0.389313,1.526718,1.763359,3,48470754,-996.032903,25.565861,145.734482,-44.305276,1.041093,6.579441,-1.013184,0.000732,0.209473,23.165294,189.699089,69.412719,-65.482456,4.870229,0.358779,0.068702,4,48478214,22.652507,158.595171,893.590455,0.956606,7.040384,39.725070,-0.025879,0.077637,0.889160,22.977059,49.939583,82.514237,-166.785237,0.732824,2.083969,-3.328244,5,48485618,-121.801724,-1001.061565,-38.263650,-5.423407,-44.518800,-1.621523,-0.128418,-0.972900,-0.036865,24.718235,-60.120715,25.883162,-59.470931,-0.961832,0.557252,-2.954198,
0,48448122,-0.755873,151.711345,-1056.871665,-0.045749,6.713319,-46.963357,-0.008545,0.148438,-1.049805,23.400588,8.453566,-70.913487,-17.651691,0.106870,-1.625954,-0.465649,1,48455649,-972.785516,-0.063111,-177.227459,-43.470435,-0.072748,-8.024545,-0.975098,-0.006592,-0.188232,24.953529,-102.455642,52.715784,-160.977877,-2.267176,0.595420,-3.351145,2,48463241,245.817057,-991.151887,354.842154,10.810666,-43.961740,15.721199,0.229736,-0.957031,0.327637,24.012353,59.972132,76.952909,49.674832,0.389313,1.526718,1.763359,3,48470754,-996.032903,25.565861,145.734482,-44.305276,1.041093,6.579441,-1.013184,0.000732,0.209473,23.165294,189.699089,69.412719,-65.482456,4.870229,0.358779,0.068702,4,48478214,22.652507,158.595171,893.590455,0.956606,7.040384,39.725070,-0.025879,0.077637,0.889160,22.977059,49.939583,82.514237,-166.785237,0.732824,2.083969,-3.328244,5,48485618,-121.801724,-1001.061565,-38.263650,-5.423407,-44.518800,-1.621523,-0.128418,-0.972900,-0.036865,24.718235,-60.120715,25.883162,-59.470931,-0.961832,0.557252,-2.954198,
0,48448122,-0.755873,151.711345,-1056.871665,-0.045749,6.713319,-46.963357,-0.008545,0.148438,-1.049805,23.400588,8.453566,-70.913487,-17.651691,0.106870,-1.625954,-0.465649,1,48455649,-972.785516,-0.063111,-177.227459,-43.470435,-0.072748,-8.024545,-0.975098,-0.006592,-0.188232,24.953529,-102.455642,52.715784,-160.977877,-2.267176,0.595420,-3.351145,2,48463241,245.817057,-991.151887,354.842154,10.810666,-43.961740,15.721199,0.229736,-0.957031,0.327637,24.012353,59.972132,76.952909,49.674832,0.389313,1.526718,1.763359,3,48470754,-996.032903,25.565861,145.734482,-44.305276,1.041093,6.579441,-1.013184,0.000732,0.209473,23.165294,189.699089,69.412719,-65.482456,4.870229,0.358779,0.068702,4,48478214,22.652507,158.595171,893.590455,0.956606,7.040384,39.725070,-0.025879,0.077637,0.889160,22.977059,49.939583,82.514237,-166.785237,0.732824,2.083969,-3.328244,5,48485618,-121.801724,-1001.061565,-38.263650,-5.423407,-44.518800,-1.621523,-0.128418,-0.972900,-0.036865,24.718235,-60.120715,25.883162,-59.470931,-0.961832,0.557252,-2.954198,
0,48448122,-0.755873,151.711345,-1056.871665,-0.045749,6.713319,-46.963357,-0.008545,0.148438,-1.049805,23.400588,8.453566,-70.913487,-17.651691,0.106870,-1.625954,-0.465649,1,48455649,-972.785516,-0.063111,-177.227459,-43.470435,-0.072748,-8.024545,-0.975098,-0.006592,-0.188232,24.953529,-102.455642,52.715784,-160.977877,-2.267176,0.595420,-3.351145,2,48463241,245.817057,-991.151887,354.842154,10.810666,-43.961740,15.721199,0.229736,-0.957031,0.327637,24.012353,59.972132,76.952909,49.674832,0.389313,1.526718,1.763359,3,48470754,-996.032903,25.565861,145.734482,-44.305276,1.041093,6.579441,-1.013184,0.000732,0.209473,23.165294,189.699089,69.412719,-65.482456,4.870229,0.358779,0.068702,4,48478214,22.652507,158.595171,893.590455,0.956606,7.040384,39.725070,-0.025879,0.077637,0.889160,22.977059,49.939583,82.514237,-166.785237,0.732824,2.083969,-3.328244,5,48485618,-121.801724,-1001.061565,-38.263650,-5.423407,-44.518800,-1.621523,-0.128418,-0.972900,-0.036865,24.718235,-60.120715,25.883162,-59.470931,-0.961832,0.557252,-2.954198,
0,48448122,-0.755873,151.711345,-1056.871665,-0.045749,6.713319,-46.963357,-0.008545,0.148438,-1.049805,23.400588,8.453566,-70.913487,-17.651691,0.106870,-1.625954,-0.465649,1,48455649,-972.785516,-0.063111,-177.227459,-43.470435,-0.072748,-8.024545,-0.975098,-0.006592,-0.188232,24.953529,-102.455642,52.715784,-160.977877,-2.267176,0.595420,-3.351145,2,48463241,245.817057,-991.151887,354.842154,10.810666,-43.961740,15.721199,0.229736,-0.957031,0.327637,24.012353,59.972132,76.952909,49.674832,0.389313,1.526718,1.763359,3,48470754,-996.032903,25.565861,145.734482,-44.305276,1.041093,6.579441,-1.013184,0.000732,0.209473,23.165294,189.699089,69.412719,-65.482456,4.870229,0.358779,0.068702,4,48478214,22.652507,158.595171,893.590455,0.956606,7.040384,39.725070,-0.025879,0.077637,0.889160,22.977059,49.939583,82.514237,-166.785237,0.732824,2.083969,-3.328244,5,48485618,-121.801724,-1001.061565,-38.263650,-5.423407,-44.518800,-1.621523,-0.128418,-0.972900,-0.036865,24.718235,-60.120715,25.883162,-59.470931,-0.961832,0.557252,-2.954198,
0,48448122,-0.755873,151.711345,-1056.871665,-0.045749,6.713319,-46.963357,-0.008545,0.148438,-1.049805,23.400588,8.453566,-70.913487,-17.651691,0.106870,-1.625954,-0.465649,1,48455649,-972.785516,-0.063111,-177.227459,-43.470435,-0.072748,-8.024545,-0.975098,-0.006592,-0.188232,24.953529,-102.455642,52.715784,-160.977877,-2.267176,0.595420,-3.351145,2,48463241,245.817057,-991.151887,354.842154,10.810666,-43.961740,15.721199,0.229736,-0.957031,0.327637,24.012353,59.972132,76.952909,49.674832,0.389313,1.526718,1.763359,3,48470754,-996.032903,25.565861,145.734482,-44.305276,1.041093,6.579441,-1.013184,0.000732,0.209473,23.165294,189.699089,69.412719,-65.482456,4.870229,0.358779,0.068702,4,48478214,22.652507,158.595171,893.590455,0.956606,7.040384,39.725070,-0.025879,0.077637,0.889160,22.977059,49.939583,82.514237,-166.785237,0.732824,2.083969,-3.328244,5,48485618,-121.801724,-1001.061565,-38.263650,-5.423407,-44.518800,-1.621523,-0.128418,-0.972900,-0.036865,24.718235,-60.120715,25.883162,-59.470931,-0.961832,0.557252,-2.954198,
0,48448122,-0.755873,151.711345,-1056.871665,-0.045749,6.713319,-46.963357,-0.008545,0.148438,-1.049805,23.400588,8.453566,-70.913487,-17.651691,0.106870,-1.625954,-0.465649,1,48455649,-972.785516,-0.063111,-177.227459,-43.470435,-0.072748,-8.024545,-0.975098,-0.006592,-0.188232,24.953529,-102.455642,52.715784,-160.977877,-2.267176,0.595420,-3.351145,2,48463241,245.817057,-991.151887,354.842154,10.810666,-43.961740,15.721199,0.229736,-0.957031,0.327637,24.012353,59.972132,76.952909,49.674832,0.389313,1.526718,1.763359,3,48470754,-996.032903,25.565861,145.734482,-44.305276,1.041093,6.579441,-1.013184,0.000732,0.209473,23.165294,189.699089,69.412719,-65.482456,4.870229,0.358779,0.068702,4,48478214,22.652507,158.595171,893.590455,0.956606,7.040384,39.725070,-0.025879,0.077637,0.889160,22.977059,49.939583,82.514237,-166.785237,0.732824,2.083969,-3.328244,5,48485618,-121.801724,-1001.061565,-38.263650,-5.423407,-44.518800,-1.621523,-0.128418,-0.972900,-0.036865,24.718235,-60.120715,25.883162,-59.470931,-0.961832,0.557252,-2.954198,
0,48448122,-0.755873,151.711345,-1056.871665,-0.045749,6.713319,-46.963357,-0.008545,0.148438,-1.049805,23.400588,8.453566,-70.913487,-17.651691,0.106870,-1.625954,-0.465649,1,48455649,-972.785516,-0.063111,-177.227459,-43.470435,-0.072748,-8.024545,-0.975098,-0.006592,-0.188232,24.953529,-102.455642,52.715784,-160.977877,-2.267176,0.595420,-3.351145,2,48463241,245.817057,-991.151887,354.842154,10.810666,-43.961740,15.721199,0.229736,-0.957031,0.327637,24.012353,59.972132,76.952909,49.674832,0.389313,1.526718,1.763359,3,48470754,-996.032903,25.565861,145.734482,-44.305276,1.041093,6.579441,-1.013184,0.000732,0.209473,23.165294,189.699089,69.412719,-65.482456,4.870229,0.358779,0.068702,4,48478214,22.652507,158.595171,893.590455,0.956606,7.040384,39.725070,-0.025879,0.077637,0.889160,22.977059,49.939583,82.514237,-166.785237,0.732824,2.083969,-3.328244,5,48485618,-121.801724,-1001.061565,-38.263650,-5.423407,-44.518800,-1.621523,-0.128418,-0.972900,-0.036865,24.718235,-60.120715,25.883162,-59.470931,-0.961832,0.557252,-2.954198,
0,48448122,-0.755873,151.711345,-1056.871665,-0.045749,6.713319,-46.963357,-0.008545,0.148438,-1.049805,23.400588,8.453566,-70.913487,-17.651691,0.106870,-1.625954,-0.465649,1,48455649,-972.785516,-0.063111,-177.227459,-43.470435,-0.072748,-8.024545,-0.975098,-0.006592,-0.188232,24.953529,-102.455642,52.715784,-160.977877,-2.267176,0.595420,-3.351145,2,48463241,245.817057,-991.151887,354.842154,10.810666,-43.961740,15.721199,0.229736,-0.957031,0.327637,24.012353,59.972132,76.952909,49.674832,0.389313,1.526718,1.763359,3,48470754,-996.032903,25.565861,145.734482,-44.305276,1.041093,6.579441,-1.013184,0.000732,0.209473,23.165294,189.699089,69.412719,-65.482456,4.870229,0.358779,0.068702,4,48478214,22.652507,158.595171,893.590455,0.956606,7.040384,39.725070,-0.025879,0.077637,0.889160,22.977059,49.939583,82.514237,-166.785237,0.732824,2.083969,-3.328244,5,48485618,-121.801724,-1001.061565,-38.263650,-5.423407,-44.518800,-1.621523,-0.128418,-0.972900,-0.036865,24.718235,-60.120715,25.883162,-59.470931,-0.961832,0.557252,-2.954198,
0,48448122,-0.755873,151.711345,-1056.871665,-0.045749,6.713319,-46.963357,-0.008545,0.148438,-1.049805,23.400588,8.453566,-70.913487,-17.651691,0.106870,-1.625954,-0.465649,1,48455649,-972.785516,-0.063111,-177.227459,-43.470435,-0.072748,-8.024545,-0.975098,-0.006592,-0.188232,24.953529,-102.455642,52.715784,-160.977877,-2.267176,0.595420,-3.351145,2,48463241,245.817057,-991.151887,354.842154,10.810666,-43.961740,15.721199,0.229736,-0.957031,0.327637,24.012353,59.972132,76.952909,49.674832,0.389313,1.526718,1.763359,3,48470754,-996.032903,25.565861,145.734482,-44.305276,1.041093,6.579441,-1.013184,0.000732,0.209473,23.165294,189.699089,69.412719,-65.482456,4.870229,0.358779,0.068702,4,48478214,22.652507,158.595171,893.590455,0.956606,7.040384,39.725070,-0.025879,0.077637,0.889160,22.977059,49.939583,82.514237,-166.785237,0.732824,2.083969,-3.328244,5,48485618,-121.801724,-1001.061565,-38.263650,-5.423407,-44.518800,-1.621523,-0.128418,-0.972900,-0.036865,24.718235,-60.120715,25.883162,-59.470931,-0.961832,0.557252,-2.954198,
0,48448122,-0.755873,151.711345,-1056.871665,-0.045749,6.713319,-46.963357,-0.008545,0.148438,-1.049805,23.400588,8.453566,-70.913487,-17.651691,0.106870,-1.625954,-0.465649,1,48455649,-972.785516,-0.063111,-177.227459,-43.470435,-0.072748,-8.024545,-0.975098,-0.006592,-0.188232,24.953529,-102.455642,52.715784,-160.977877,-2.267176,0.595420,-3.351145,2,48463241,245.817057,-991.151887,354.842154,10.810666,-43.961740,15.721199,0.229736,-0.957031,0.327637,24.012353,59.972132,76.952909,49.674832,0.389313,1.526718,1.763359,3,48470754,-996.032903,25.565861,145.734482,-44.305276,1.041093,6.579441,-1.013184,0.000732,0.209473,23.165294,189.699089,69.412719,-65.482456,4.870229,0.358779,0.068702,4,48478214,22.652507,158.595171,893.590455,0.956606,7.040384,39.725070,-0.025879,0.077637,0.889160,22.977059,49.939583,82.514237,-166.785237,0.732824,2.083969,-3.328244,5,48485618,-121.801724,-1001.061565,-38.263650,-5.423407,-44.518800,-1.621523,-0.128418,-0.972900,-0.036865,24.718235,-60.120715,25.883162,-59.470931,-0.961832,0.557252,-2.954198,
0,48448122,-0.755873,151.711345,-1056.871665,-0.045749,6.713319,-46.963357,-0.008545,0.148438,-1.049805,23.400588,8.453566,-70.913487,-17.651691,0.106870,-1.625954,-0.465649,1,48455649,-972.785516,-0.063111,-177.227459,-43.470435,-0.072748,-8.024545,-0.975098,-0.006592,-0.188232,24.953529,-102.455642,52.715784,-160.977877,-2.267176,0.595420,-3.351145,2,48463241,245.817057,-991.151887,354.842154,10.810666,-43.961740,15.721199,0.229736,-0.957031,0.327637,24.012353,59.972132,76.952909,49.674832,0.389313,1.526718,1.763359,3,48470754,-996.032903,25.565861,145.734482,-44.305276,1.041093,6.579441,-1.013184,0.000732,0.209473,23.165294,189.699089,69.412719,-65.482456,4.870229,0.358779,0.068702,4,48478214,22.652507,158.595171,893.590455,0.956606,7.040384,39.725070,-0.025879,0.077637,0.889160,22.977059,49.939583,82.514237,-166.785237,0.732824,2.083969,-3.328244,5,48485618,-121.801724,-1001.061565,-38.263650,-5.423407,-44.518800,-1.621523,-0.128418,-0.972900,-0.036865,24.718235,-60.120715,25.883162,-59.470931,-0.961832,0.557252,-2.954198,
0,48448122,-0.755873,151.711345,-1056.871665,-0.045749,6.713319,-46.963357,-0.008545,0.148438,-1.049805,23.400588,8.453566,-70.913487,-17.651691,0.106870,-1.625954,-0.465649,1,48455649,-972.785516,-0.063111,-177.227459,-43.470435,-0.072748,-8.024545,-0.975098,-0.006592,-0.188232,24.953529,-102.455642,52.715784,-160.977877,-2.267176,0.595420,-3.351145,2,48463241,245.817057,-991.151887,354.842154,10.810666,-43.961740,15.721199,0.229736,-0.957031,0.327637,24.012353,59.972132,76.952909,49.674832,0.389313,1.526718,1.763359,3,48470754,-996.032903,25.565861,145.734482,-44.305276,1.041093,6.579441,-1.013184,0.000732,0.209473,23.165294,189.699089,69.412719,-65.482456,4.870229,0.358779,0.068702,4,48478214,22.652507,158.595171,893.590455,0.956606,7.040384,39.725070,-0.025879,0.077637,0.889160,22.977059,49.939583,82.514237,-166.785237,0.732824,2.083969,-3.328244,5,48485618,-121.801724,-1001.061565,-38.263650,-5.423407,-44.518800,-1.621523,-0.128418,-0.972900,-0.036865,24.718235,-60.120715,25.883162,-59.470931,-0.961832,0.557252,-2.954198,
0,48448122,-0.755873,151.711345,-1056.871665,-0.045749,6.713319,-46.963357,-0.008545,0.148438,-1.049805,23.400588,8.453566,-70.913487,-17.651691,0.106870,-1.625954,-0.465649,1,48455649,-972.785516,-0.063111,-177.227459,-43.470435,-0.072748,-8.024545,-0.975098,-0.006592,-0.188232,24.953529,-102.455642,52.715784,-160.977877,-2.267176,0.595420,-3.351145,2,48463241,245.817057,-991.151887,354.842154,10.810666,-43.961740,15.721199,0.229736,-0.957031,0.327637,24.012353,59.972132,76.952909,49.674832,0.389313,1.526718,1.763359,3,48470754,-996.032903,25.565861,145.734482,-44.305276,1.041093,6.579441,-1.013184,0.000732,0.209473,23.165294,189.699089,69.412719,-65.482456,4.870229,0.358779,0.068702,4,48478214,22.652507,158.595171,893.590455,0.956606,7.040384,39.725070,-0.025879,0.077637,0.889160,22.977059,49.939583,82.514237,-166.785237,0.732824,2.083969,-3.328244,5,48485618,-121.801724,-1001.061565,-38.263650,-5.423407,-44.518800,-1.621523,-0.128418,-0.972900,-0.036865,24.718235,-60.120715,25.883162,-59.470931,-0.961832,0.557252,-2.954198,
0,48448122,-0.755873,151.711345,-1056.871665,-0.045749,6.713319,-46.963357,-0.008545,0.148438,-1.049805,23.400588,8.453566,-70.913487,-17.651691,0.106870,-1.625954,-0.465649,1,48455649,-972.785516,-0.063111,-177.227459,-43.470435,-0.072748,-8.024545,-0.975098,-0.006592,-0.188232,24.953529,-102.455642,52.715784,-160.977877,-2.267176,0.595420,-3.351145,2,48463241,245.817057,-991.151887,354.842154,10.810666,-43.961740,15.721199,0.229736,-0.957031,0.327637,24.012353,59.972132,76.952909,49.674832,0.389313,1.526718,1.763359,3,48470754,-996.032903,25.565861,145.734482,-44.305276,1.041093,6.579441,-1.013184,0.000732,0.209473,23.165294,189.699089,69.412719,-65.482456,4.870229,0.358779,0.068702,4,48478214,22.652507,158.595171,893.590455,0.956606,7.040384,39.725070,-0.025879,0.077637,0.889160,22.977059,49.939583,82.514237,-166.785237,0.732824,2.083969,-3.328244,5,48485618,-121.801724,-1001.061565,-38.263650,-5.423407,-44.518800,-1.621523,-0.128418,-0.972900,-0.036865,24.718235,-60.120715,25.883162,-59.470931,-0.961832,0.557252,-2.954198,
0,48448122,-0.755873,151.711345,-1056.871665,-0.045749,6.713319,-46.963357,-0.008545,0.148438,-1.049805,23.400588,8.453566,-70.913487,-17.651691,0.106870,-1.625954,-0.465649,1,48455649,-972.785516,-0.063111,-177.227459,-43.470435,-0.072748,-8.024545,-0.975098,-0.006592,-0.188232,24.953529,-102.455642,52.715784,-160.977877,-2.267176,0.595420,-3.351145,2,48463241,245.817057,-991.151887,354.842154,10.810666,-43.961740,15.721199,0.229736,-0.957031,0.327637,24.012353,59.972132,76.952909,49.674832,0.389313,1.526718,1.763359,3,48470754,-996.032903,25.565861,145.734482,-44.305276,1.041093,6.579441,-1.013184,0.000732,0.209473,23.165294,189.699089,69.412719,-65.482456,4.870229,0.358779,0.068702,4,48478214,22.652507,158.595171,893.590455,0.956606,7.040384,39.725070,-0.025879,0.077637,0.889160,22.977059,49.939583,82.514237,-166.785237,0.732824,2.083969,-3.328244,5,48485618,-121.801724,-1001.061565,-38.263650,-5.423407,-44.518800,-1.621523,-0.128418,-0.972900,-0.036865,24.718235,-60.120715,25.883162,-59.470931,-0.961832,0.557252,-2.954198,
0,48448122,-0.755873,151.711345,-1056.871665,-0.045749,6.713319,-46.963357,-0.008545,0.148438,-1.049805,23.400588,8.453566,-70.913487,-17.651691,0.106870,-1.625954,-0.465649,1,48455649,-972.785516,-0.063111,-177.227459,-43.470435,-0.072748,-8.024545,-0.975098,-0.006592,-0.188232,24.953529,-102.455642,52.715784,-160.977877,-2.267176,0.595420,-3.351145,2,48463241,245.817057,-991.151887,354.842154,10.810666,-43.961740,15.721199,0.229736,-0.957031,0.327637,24.012353,59.972132,76.952909,49.674832,0.389313,1.526718,1.763359,3,48470754,-996.032903,25.565861,145.734482,-44.305276,1.041093,6.579441,-1.013184,0.000732,0.209473,23.165294,189.699089,69.412719,-65.482456,4.870229,0.358779,0.068702,4,48478214,22.652507,158.595171,893.590455,0.956606,7.040384,39.725070,-0.025879,0.077637,0.889160,22.977059,49.939583,82.514237,-166.785237,0.732824,2.083969,-3.328244,5,48485618,-121.801724,-1001.061565,-38.263650,-5.423407,-44.518800,-1.621523,-0.128418,-0.972900,-0.036865,24.718235,-60.120715,25.883162,-59.470931,-0.961832,0.557252,-2.954198,
0,48448122,-0.755873,151.711345,-1056.871665,-0.045749,6.713319,-46.963357,-0.008545,0.148438,-1.049805,23.400588,8.453566,-70.913487,-17.651691,0.106870,-1.625954,-0.465649,1,48455649,-972.785516,-0.063111,-177.227459,-43.470435,-0.072748,-8.024545,-0.975098,-0.006592,-0.188232,24.953529,-102.455642,52.715784,-160.977877,-2.267176,0.595420,-3.351145,2,48463241,245.817057,-991.151887,354.842154,10.810666,-43.961740,15.721199,0.229736,-0.957031,0.327637,24.012353,59.972132,76.952909,49.674832,0.389313,1.526718,1.763359,3,48470754,-996.032903,25.565861,145.734482,-44.305276,1.041093,6.579441,-1.013184,0.000732,0.209473,23.165294,189.699089,69.412719,-65.482456,4.870229,0.358779,0.068702,4,48478214,22.652507,158.595171,893.590455,0.956606,7.040384,39.725070,-0.025879,0.077637,0.889160,22.977059,49.939583,82.514237,-166.785237,0.732824,2.083969,-3.328244,5,48485618,-121.801724,-1001.061565,-38.263650,-5.423407,-44.518800,-1.621523,-0.128418,-0.972900,-0.036865,24.718235,-60.120715,25.883162,-59.470931,-0.961832,0.557252,-2.954198,
0,48448122,-0.755873,151.711345,-1056.871665,-0.045749,6.713319,-46.963357,-0.008545,0.148438,-1.049805,23.400588,8.453566,-70.913487,-17.651691,0.106870,-1.625954,-0.465649,1,48455649,-972.785516,-0.063111,-177.227459,-43.470435,-0.072748,-8.024545,-0.975098,-0.006592,-0.188232,24.953529,-102.455642,52.715784,-160.977877,-2.267176,0.595420,-3.351145,2,48463241,245.817057,-991.151887,354.842154,10.810666,-43.961740,15.721199,0.229736,-0.957031,0.327637,24.012353,59.972132,76.952909,49.674832,0.389313,1.526718,1.763359,3,48470754,-996.032903,25.565861,145.734482,-44.305276,1.041093,6.579441,-1.013184,0.000732,0.209473,23.165294,189.699089,69.412719,-65.482456,4.870229,0.358779,0.068702,4,48478214,22.652507,158.595171,893.590455,0.956606,7.040384,39.725070,-0.025879,0.077637,0.889160,22.977059,49.939583,82.514237,-166.785237,0.732824,2.083969,-3.328244,5,48485618,-121.801724,-1001.061565,-38.263650,-5.423407,-44.518800,-1.621523,-0.128418,-0.972900,-0.036865,24.718235,-60.120715,25.883162,-59.470931,-0.961832,0.557252,-2.954198,
0,48448122,-0.755873,151.711345,-1056.871665,-0.045749,6.713319,-46.963357,-0.008545,0.148438,-1.049805,23.400588,8.453566,-70.913487,-17.651691,0.106870,-1.625954,-0.465649,1,48455649,-972.785516,-0.063111,-177.227459,-43.470435,-0.072748,-8.024545,-0.975098,-0.006592,-0.188232,24.953529,-102.455642,52.715784,-160.977877,-2.267176,0.595420,-3.351145,2,48463241,245.817057,-991.151887,354.842154,10.810666,-43.961740,15.721199,0.229736,-0.957031,0.327637,24.012353,59.972132,76.952909,49.674832,0.389313,1.526718,1.763359,3,48470754,-996.032903,25.565861,145.734482,-44.305276,1.041093,6.579441,-1.013184,0.000732,0.209473,23.165294,189.699089,69.412719,-65.482456,4.870229,0.358779,0.068702,4,48478214,22.652507,158.595171,893.590455,0.956606,7.040384,39.725070,-0.025879,0.077637,0.889160,22.977059,49.939583,82.514237,-166.785237,0.732824,2.083969,-3.328244,5,48485618,-121.801724,-1001.061565,-38.263650,-5.423407,-44.518800,-1.621523,-0.128418,-0.972900,-0.036865,24.718235,-60.120715,25.883162,-59.470931,-0.961832,0.557252,-2.954198,
0,48448122,-0.755873,151.711345,-1056.871665,-0.045749,6.713319,-46.963357,-0.008545,0.148438,-1.049805,23.400588,8.453566,-70.913487,-17.651691,0.106870,-1.625954,-0.465649,1,48455649,-972.785516,-0.063111,-177.227459,-43.470435,-0.072748,-8.024545,-0.975098,-0.006592,-0.188232,24.953529,-102.455642,52.715784,-160.977877,-2.267176,0.595420,-3.351145,2,48463241,245.817057,-991.151887,354.842154,10.810666,-43.961740,15.721199,0.229736,-0.957031,0.327637,24.012353,59.972132,76.952909,49.674832,0.389313,1.526718,1.763359,3,48470754,-996.032903,25.565861,145.734482,-44.305276,1.041093,6.579441,-1.013184,0.000732,0.209473,23.165294,189.699089,69.412719,-65.482456,4.870229,0.358779,0.068702,4,48478214,22.652507,158.595171,893.590455,0.956606,7.040384,39.725070,-0.025879,0.077637,0.889160,22.977059,49.939583,82.514237,-166.785237,0.732824,2.083969,-3.328244,5,48485618,-121.801724,-1001.061565,-38.263650,-5.423407,-44.518800,-1.621523,-0.128418,-0.972900,-0.036865,24.718235,-60.120715,25.883162,-59.470931,-0.961832,0.557252,-2.954198,
0,48448122,-0.755873,151.711345,-1056.871665,-0.045749,6.713319,-46.963357,-0.008545,0.148438,-1.049805,23.400588,8.453566,-70.913487,-17.651691,0.106870,-1.625954,-0.465649,1,48455649,-972.785516,-0.063111,-177.227459,-43.470435,-0.072748,-8.024545,-0.975098,-0.006592,-0.188232,24.953529,-102.455642,52.715784,-160.977877,-2.267176,0.595420,-3.351145,2,48463241,245.817057,-991.151887,354.842154,10.810666,-43.961740,15.721199,0.229736,-0.957031,0.327637,24.012353,59.972132,76.952909,49.674832,0.389313,1.526718,1.763359,3,48470754,-996.032903,25.565861,145.734482,-44.305276,1.041093,6.579441,-1.013184,0.000732,0.209473,23.165294,189.699089,69.412719,-65.482456,4.870229,0.358779,0.068702,4,48478214,22.652507,158.595171,893.590455,0.956606,7.040384,39.725070,-0.025879,0.077637,0.889160,22.977059,49.939583,82.514237,-166.785237,0.732824,2.083969,-3.328244,5,48485618,-121.801724,-1001.061565,-38.263650,-5.423407,-44.518800,-1.621523,-0.128418,-0.972900,-0.036865,24.718235,-60.120715,25.883162,-59.470931,-0.961832,0.557252,-2.954198,
0,48448122,-0.755873,151.711345,-1056.871665,-0.045749,6.713319,-46.963357,-0.008545,0.148438,-1.049805,23.400588,8.453566,-70.913487,-17.651691,0.106870,-1.625954,-0.465649,1,48455649,-972.785516,-0.063111,-177.227459,-43.470435,-0.072748,-8.024545,-0.975098,-0.006592,-0.188232,24.953529,-102.455642,52.715784,-160.977877,-2.267176,0.595420,-3.351145,2,48463241,245.817057,-991.151887,354.842154,10.810666,-43.961740,15.721199,0.229736,-0.957031,0.327637,24.012353,59.972132,76.952909,49.674832,0.389313,1.526718,1.763359,3,48470754,-996.032903,25.565861,145.734482,-44.305276,1.041093,6.579441,-1.013184,0.000732,0.209473,23.165294,189.699089,69.412719,-65.482456,4.870229,0.358779,0.068702,4,48478214,22.652507,158.595171,893.590455,0.956606,7.040384,39.725070,-0.025879,0.077637,0.889160,22.977059,49.939583,82.514237,-166.785237,0.732824,2.083969,-3.328244,5,48485618,-121.801724,-1001.061565,-38.263650,-5.423407,-44.518800,-1.621523,-0.128418,-0.972900,-0.036865,24.718235,-60.120715,25.883162,-59.470931,-0.961832,0.557252,-2.954198,
0,48448122,-0.755873,151.711345,-1056.871665,-0.045749,6.713319,-46.963357,-0.008545,0.148438,-1.049805,23.400588,8.453566,-70.913487,-17.651691,0.106870,-1.625954,-0.465649,1,48455649,-972.785516,-0.063111,-177.227459,-43.470435,-0.072748,-8.024545,-0.975098,-0.006592,-0.188232,24.953529,-102.455642,52.715784,-160.977877,-2.267176,0.595420,-3.351145,2,48463241,245.817057,-991.151887,354.842154,10.810666,-43.961740,15.721199,0.229736,-0.957031,0.327637,24.012353,59.972132,76.952909,49.674832,0.389313,1.526718,1.763359,3,48470754,-996.032903,25.565861,145.734482,-44.305276,1.041093,6.579441,-1.013184,0.000732,0.209473,23.165294,189.699089,69.412719,-65.482456,4.870229,0.358779,0.068702,4,48478214,22.652507,158.595171,893.590455,0.956606,7.040384,39.725070,-0.025879,0.077637,0.889160,22.977059,49.939583,82.514237,-166.785237,0.732824,2.083969,-3.328244,5,48485618,-121.801724,-1001.061565,-38.263650,-5.423407,-44.518800,-1.621523,-0.128418,-0.972900,-0.036865,24.718235,-60.120715,25.883162,-59.470931,-0.961832,0.557252,-2.954198,
0,48448122,-0.755873,151.711345,-1056.871665,-0.045749,6.713319,-46.963357,-0.008545,0.148438,-1.049805,23.400588,8.453566,-70.913487,-17.651691,0.106870,-1.625954,-0.465649,1,48455649,-972.785516,-0.063111,-177.227459,-43.470435,-0.072748,-8.024545,-0.975098,-0.006592,-0.188232,24.953529,-102.455642,52.715784,-160.977877,-2.267176,0.595420,-3.351145,2,48463241,245.817057,-991.151887,354.842154,10.810666,-43.961740,15.721199,0.229736,-0.957031,0.327637,24.012353,59.972132,76.952909,49.674832,0.389313,1.526718,1.763359,3,48470754,-996.032903,25.565861,145.734482,-44.305276,1.041093,6.579441,-1.013184,0.000732,0.209473,23.165294,189.699089,69.412719,-65.482456,4.870229,0.358779,0.068702,4,48478214,22.652507,158.595171,893.590455,0.956606,7.040384,39.725070,-0.025879,0.077637,0.889160,22.977059,49.939583,82.514237,-166.785237,0.732824,2.083969,-3.328244,5,48485618,-121.801724,-1001.061565,-38.263650,-5.423407,-44.518800,-1.621523,-0.128418,-0.972900,-0.036865,24.718235,-60.120715,25.883162,-59.470931,-0.961832,0.557252,-2.954198,
0,48448122,-0.755873,151.711345,-1056.871665,-0.045749,6.713319,-46.963357,-0.008545,0.148438,-1.049805,23.400588,8.453566,-70.913487,-17.651691,0.106870,-1.625954,-0.465649,1,48455649,-972.785516,-0.063111,-177.227459,-43.470435,-0.072748,-8.024545,-0.975098,-0.006592,-0.188232,24.953529,-102.455642,52.715784,-160.977877,-2.267176,0.595420,-3.351145,2,48463241,245.817057,-991.151887,354.842154,10.810666,-43.961740,15.721199,0.229736,-0.957031,0.327637,24.012353,59.972132,76.952909,49.674832,0.389313,1.526718,1.763359,3,48470754,-996.032903,25.565861,145.734482,-44.305276,1.041093,6.579441,-1.013184,0.000732,0.209473,23.165294,189.699089,69.412719,-65.482456,4.870229,0.358779,0.068702,4,48478214,22.652507,158.595171,893.590455,0.956606,7.040384,39.725070,-0.025879,0.077637,0.889160,22.977059,49.939583,82.514237,-166.785237,0.732824,2.083969,-3.328244,5,48485618,-121.801724,-1001.061565,-38.263650,-5.423407,-44.518800,-1.621523,-0.128418,-0.972900,-0.036865,24.718235,-60.120715,25.883162,-59.470931,-0.961832,0.557252,-2.954198,
0,48448122,-0.755873,151.711345,-1056.871665,-0.045749,6.713319,-46.963357,-0.008545,0.148438,-1.049805,23.400588,8.453566,-70.913487,-17.651691,0.106870,-1.625954,-0.465649,1,48455649,-972.785516,-0.063111,-177.227459,-43.470435,-0.072748,-8.024545,-0.975098,-0.006592,-0.188232,24.953529,-102.455642,52.715784,-160.977877,-2.267176,0.595420,-3.351145,2,48463241,245.817057,-991.151887,354.842154,10.810666,-43.961740,15.721199,0.229736,-0.957031,0.327637,24.012353,59.972132,76.952909,49.674832,0.389313,1.526718,1.763359,3,48470754,-996.032903,25.565861,145.734482,-44.305276,1.041093,6.579441,-1.013184,0.000732,0.209473,23.165294,189.699089,69.412719,-65.482456,4.870229,0.358779,0.068702,4,48478214,22.652507,158.595171,893.590455,0.956606,7.040384,39.725070,-0.025879,0.077637,0.889160,22.977059,49.939583,82.514237,-166.785237,0.732824,2.083969,-3.328244,5,48485618,-121.801724,-1001.061565,-38.263650,-5.423407,-44.518800,-1.621523,-0.128418,-0.972900,-0.036865,24.718235,-60.120715,25.883162,-59.470931,-0.961832,0.557252,-2.954198,
0,48448122,-0.755873,151.711345,-1056.871665,-0.045749,6.713319,-46.963357,-0.008545,0.148438,-1.049805,23.400588,8.453566,-70.913487,-17.651691,0.106870,-1.625954,-0.465649,1,48455649,-972.785516,-0.063111,-177.227459,-43.470435,-0.072748,-8.024545,-0.975098,-0.006592,-0.188232,24.953529,-102.455642,52.715784,-160.977877,-2.267176,0.595420,-3.351145,2,48463241,245.817057,-991.151887,354.842154,10.810666,-43.961740,15.721199,0.229736,-0.957031,0.327637,24.012353,59.972132,76.952909,49.674832,0.389313,1.526718,1.763359,3,48470754,-996.032903,25.565861,145.734482,-44.305276,1.041093,6.579441,-1.013184,0.000732,0.209473,23.165294,189.699089,69.412719,-65.482456,4.870229,0.358779,0.068702,4,48478214,22.652507,158.595171,893.590455,0.956606,7.040384,39.725070,-0.025879,0.077637,0.889160,22.977059,49.939583,82.514237,-166.785237,0.732824,2.083969,-3.328244,5,48485618,-121.801724,-1001.061565,-38.263650,-5.423407,-44.518800,-1.621523,-0.128418,-0.972900,-0.036865,24.718235,-60.120715,25.883162,-59.470931,-0.961832,0.557252,-2.954198,
0,48448122,-0.755873,151.711345,-1056.871665,-0.045749,6.713319,-46.963357,-0.008545,0.148438,-1.049805,23.400588,8.453566,-70.913487,-17.651691,0.106870,-1.625954,-0.465649,1,48455649,-972.785516,-0.063111,-177.227459,-43.470435,-0.072748,-8.024545,-0.975098,-0.006592,-0.188232,24.953529,-102.455642,52.715784,-160.977877,-2.267176,0.595420,-3.351145,2,48463241,245.817057,-991.151887,354.842154,10.810666,-43.961740,15.721199,0.229736,-0.957031,0.327637,24.012353,59.972132,76.952909,49.674832,0.389313,1.526718,1.763359,3,48470754,-996.032903,25.565861,145.734482,-44.305276,1.041093,6.579441,-1.013184,0.000732,0.209473,23.165294,189.699089,69.412719,-65.482456,4.870229,0.358779,0.068702,4,48478214,22.652507,158.595171,893.590455,0.956606,7.040384,39.725070,-0.025879,0.077637,0.889160,22.977059,49.939583,82.514237,-166.785237,0.732824,2.083969,-3.328244,5,48485618,-121.801724,-1001.061565,-38.263650,-5.423407,-44.518800,-1.621523,-0.128418,-0.972900,-0.036865,24.718235,-60.120715,25.883162,-59.470931,-0.961832,0.557252,-2.954198,
0,48448122,-0.755873,151.711345,-1056.871665,-0.045749,6.713319,-46.963357,-0.008545,0.148438,-1.049805,23.400588,8.453566,-70.913487,-17.651691,0.106870,-1.625954,-0.465649,1,48455649,-972.785516,-0.063111,-177.227459,-43.470435,-0.072748,-8.024545,-0.975098,-0.006592,-0.188232,24.953529,-102.455642,52.715784,-160.977877,-2.267176,0.595420,-3.351145,2,48463241,245.817057,-991.151887,354.842154,10.810666,-43.961740,15.721199,0.229736,-0.957031,0.327637,24.012353,59.972132,76.952909,49.674832,0.389313,1.526718,1.763359,3,48470754,-996.032903,25.565861,145.734482,-44.305276,1.041093,6.579441,-1.013184,0.000732,0.209473,23.165294,189.699089,69.412719,-65.482456,4.870229,0.358779,0.068702,4,48478214,22.652507,158.595171,893.590455,0.956606,7.040384,39.725070,-0.025879,0.077637,0.889160,22.977059,49.939583,82.514237,-166.785237,0.732824,2.083969,-3.328244,5,48485618,-121.801724,-1001.061565,-38.263650,-5.423407,-44.518800,-1.621523,-0.128418,-0.972900,-0.036865,24.718235,-60.120715,25.883162,-59.470931,-0.961832,0.557252,-2.954198,
0,48448122,-0.755873,151.711345,-1056.871665,-0.045749,6.713319,-46.963357,-0.008545,0.148438,-1.049805,23.400588,8.453566,-70.913487,-17.651691,0.106870,-1.625954,-0.465649,1,48455649,-972.785516,-0.063111,-177.227459,-43.470435,-0.072748,-8.024545,-0.975098,-0.006592,-0.188232,24.953529,-102.455642,52.715784,-160.977877,-2.267176,0.595420,-3.351145,2,48463241,245.817057,-991.151887,354.842154,10.810666,-43.961740,15.721199,0.229736,-0.957031,0.327637,24.012353,59.972132,76.952909,49.674832,0.389313,1.526718,1.763359,3,48470754,-996.032903,25.565861,145.734482,-44.305276,1.041093,6.579441,-1.013184,0.000732,0.209473,23.165294,189.699089,69.412719,-65.482456,4.870229,0.358779,0.068702,4,48478214,22.652507,158.595171,893.590455,0.956606,7.040384,39.725070,-0.025879,0.077637,0.889160,22.977059,49.939583,82.514237,-166.785237,0.732824,2.083969,-3.328244,5,48485618,-121.801724,-1001.061565,-38.263650,-5.423407,-44.518800,-1.621523,-0.128418,-0.972900,-0.036865,24.718235,-60.120715,25.883162,-59.470931,-0.961832,0.557252,-2.954198,
0,48448122,-0.755873,151.711345,-1056.871665,-0.045749,6.713319,-46.963357,-0.008545,0.148438,-1.049805,23.400588,8.453566,-70.913487,-17.651691,0.106870,-1.625954,-0.465649,1,48455649,-972.785516,-0.063111,-177.227459,-43.470435,-0.072748,-8.024545,-0.975098,-0.006592,-0.188232,24.953529,-102.455642,52.715784,-160.977877,-2.267176,0.595420,-3.351145,2,48463241,245.817057,-991.151887,354.842154,10.810666,-43.961740,15.721199,0.229736,-0.957031,0.327637,24.012353,59.972132,76.952909,49.674832,0.389313,1.526718,1.763359,3,48470754,-996.032903,25.565861,145.734482,-44.305276,1.041093,6.579441,-1.013184,0.000732,0.209473,23.165294,189.699089,69.412719,-65.482456,4.870229,0.358779,0.068702,4,48478214,22.652507,158.595171,893.590455,0.956606,7.040384,39.725070,-0.025879,0.077637,0.889160,22.977059,49.939583,82.514237,-166.785237,0.732824,2.083969,-3.328244,5,48485618,-121.801724,-1001.061565,-38.263650,-5.423407,-44.518800,-1.621523,-0.128418,-0.972900,-0.036865,24.718235,-60.120715,25.883162,-59.470931,-0.961832,0.557252,-2.954198,
0,48448122,-0.755873,151.711345,-1056.871665,-0.045749,6.713319,-46.963357,-0.008545,0.148438,-1.049805,23.400588,8.453566,-70.913487,-17.651691,0.106870,-1.625954,-0.465649,1,48455649,-972.785516,-0.063111,-177.227459,-43.470435,-0.072748,-8.024545,-0.975098,-0.006592,-0.188232,24.953529,-102.455642,52.715784,-160.977877,-2.267176,0.595420,-3.351145,2,48463241,245.817057,-991.151887,354.842154,10.810666,-43.961740,15.721199,0.229736,-0.957031,0.327637,24.012353,59.972132,76.952909,49.674832,0.389313,1.526718,1.763359,3,48470754,-996.032903,25.565861,145.734482,-44.305276,1.041093,6.579441,-1.013184,0.000732,0.209473,23.165294,189.699089,69.412719,-65.482456,4.870229,0.358779,0.068702,4,48478214,22.652507,158.595171,893.590455,0.956606,7.040384,39.725070,-0.025879,0.077637,0.889160,22.977059,49.939583,82.514237,-166.785237,0.732824,2.083969,-3.328244,5,48485618,-121.801724,-1001.061565,-38.263650,-5.423407,-44.518800,-1.621523,-0.128418,-0.972900,-0.036865,24.718235,-60.120715,25.883162,-59.470931,-0.961832,0.557252,-2.954198,
0,48448122,-0.755873,151.711345,-1056.871665,-0.045749,6.713319,-46.963357,-0.008545,0.148438,-1.049805,23.400588,8.453566,-70.913487,-17.651691,0.106870,-1.625954,-0.465649,1,48455649,-972.785516,-0.063111,-177.227459,-43.470435,-0.072748,-8.024545,-0.975098,-0.006592,-0.188232,24.953529,-102.455642,52.715784,-160.977877,-2.267176,0.595420,-3.351145,2,48463241,245.817057,-991.151887,354.842154,10.810666,-43.961740,15.721199,0.229736,-0.957031,0.327637,24.012353,59.972132,76.952909,49.674832,0.389313,1.526718,1.763359,3,48470754,-996.032903,25.565861,145.734482,-44.305276,1.041093,6.579441,-1.013184,0.000732,0.209473,23.165294,189.699089,69.412719,-65.482456,4.870229,0.358779,0.068702,4,48478214,22.652507,158.595171,893.590455,0.956606,7.040384,39.725070,-0.025879,0.077637,0.889160,22.977059,49.939583,82.514237,-166.785237,0.732824,2.083969,-3.328244,5,48485618,-121.801724,-1001.061565,-38.263650,-5.423407,-44.518800,-1.621523,-0.128418,-0.972900,-0.036865,24.718235,-60.120715,25.883162,-59.470931,-0.961832,0.557252,-2.954198,
0,48448122,-0.755873,151.711345,-1056.871665,-0.045749,6.713319,-46.963357,-0.008545,0.148438,-1.049805,23.400588,8.453566,-70.913487,-17.651691,0.106870,-1.625954,-0.465649,1,48455649,-972.785516,-0.063111,-177.227459,-43.470435,-0.072748,-8.024545,-0.975098,-0.006592,-0.188232,24.953529,-102.455642,52.715784,-160.977877,-2.267176,0.595420,-3.351145,2,48463241,245.817057,-991.151887,354.842154,10.810666,-43.961740,15.721199,0.229736,-0.957031,0.327637,24.012353,59.972132,76.952909,49.674832,0.389313,1.526718,1.763359,3,48470754,-996.032903,25.565861,145.734482,-44.305276,1.041093,6.579441,-1.013184,0.000732,0.209473,23.165294,189.699089,69.412719,-65.482456,4.870229,0.358779,0.068702,4,48478214,22.652507,158.595171,893.590455,0.956606,7.040384,39.725070,-0.025879,0.077637,0.889160,22.977059,49.939583,82.514237,-166.785237,0.732824,2.083969,-3.328244,5,48485618,-121.801724,-1001.061565,-38.263650,-5.423407,-44.518800,-1.621523,-0.128418,-0.972900,-0.036865,24.718235,-60.120715,25.883162,-59.470931,-0.961832,0.557252,-2.954198,
0,48448122,-0.755873,151.711345,-1056.871665,-0.045749,6.713319,-46.963357,-0.008545,0.148438,-1.049805,23.400588,8.453566,-70.913487,-17.651691,0.106870,-1.625954,-0.465649,1,48455649,-972.785516,-0.063111,-177.227459,-43.470435,-0.072748,-8.024545,-0.975098,-0.006592,-0.188232,24.953529,-102.455642,52.715784,-160.977877,-2.267176,0.595420,-3.351145,2,48463241,245.817057,-991.151887,354.842154,10.810666,-43.961740,15.721199,0.229736,-0.957031,0.327637,24.012353,59.972132,76.952909,49.674832,0.389313,1.526718,1.763359,3,48470754,-996.032903,25.565861,145.734482,-44.305276,1.041093,6.579441,-1.013184,0.000732,0.209473,23.165294,189.699089,69.412719,-65.482456,4.870229,0.358779,0.068702,4,48478214,22.652507,158.595171,893.590455,0.956606,7.040384,39.725070,-0.025879,0.077637,0.889160,22.977059,49.939583,82.514237,-166.785237,0.732824,2.083969,-3.328244,5,48485618,-121.801724,-1001.061565,-38.263650,-5.423407,-44.518800,-1.621523,-0.128418,-0.972900,-0.036865,24.718235,-60.120715,25.883162,-59.470931,-0.961832,0.557252,-2.954198,
0,48448122,-0.755873,151.711345,-1056.871665,-0.045749,6.713319,-46.963357,-0.008545,0.148438,-1.049805,23.400588,8.453566,-70.913487,-17.651691,0.106870,-1.625954,-0.465649,1,48455649,-972.785516,-0.063111,-177.227459,-43.470435,-0.072748,-8.024545,-0.975098,-0.006592,-0.188232,24.953529,-102.455642,52.715784,-160.977877,-2.267176,0.595420,-3.351145,2,48463241,245.817057,-991.151887,354.842154,10.810666,-43.961740,15.721199,0.229736,-0.957031,0.327637,24.012353,59.972132,76.952909,49.674832,0.389313,1.526718,1.763359,3,48470754,-996.032903,25.565861,145.734482,-44.305276,1.041093,6.579441,-1.013184,0.000732,0.209473,23.165294,189.699089,69.412719,-65.482456,4.870229,0.358779,0.068702,4,48478214,22.652507,158.595171,893.590455,0.956606,7.040384,39.725070,-0.025879,0.077637,0.889160,22.977059,49.939583,82.514237,-166.785237,0.732824,2.083969,-3.328244,5,48485618,-121.801724,-1001.061565,-38.263650,-5.423407,-44.518800,-1.621523,-0.128418,-0.972900,-0.036865,24.718235,-60.120715,25.883162,-59.470931,-0.961832,0.557252,-2.954198,
0,48448122,-0.755873,151.711345,-1056.871665,-0.045749,6.713319,-46.963357,-0.008545,0.148438,-1.049805,23.400588,8.453566,-70.913487,-17.651691,0.106870,-1.625954,-0.465649,1,48455649,-972.785516,-0.063111,-177.227459,-43.470435,-0.072748,-8.024545,-0.975098,-0.006592,-0.188232,24.953529,-102.455642,52.715784,-160.977877,-2.267176,0.595420,-3.351145,2,48463241,245.817057,-991.151887,354.842154,10.810666,-43.961740,15.721199,0.229736,-0.957031,0.327637,24.012353,59.972132,76.952909,49.674832,0.389313,1.526718,1.763359,3,48470754,-996.032903,25.565861,145.734482,-44.305276,1.041093,6.579441,-1.013184,0.000732,0.209473,23.165294,189.699089,69.412719,-65.482456,4.870229,0.358779,0.068702,4,48478214,22.652507,158.595171,893.590455,0.956606,7.040384,39.725070,-0.025879,0.077637,0.889160,22.977059,49.939583,82.514237,-166.785237,0.732824,2.083969,-3.328244,5,48485618,-121.801724,-1001.061565,-38.263650,-5.423407,-44.518800,-1.621523,-0.128418,-0.972900,-0.036865,24.718235,-60.120715,25.883162,-59.470931,-0.961832,0.557252,-2.954198,
0,48448122,-0.755873,151.711345,-1056.871665,-0.045749,6.713319,-46.963357,-0.008545,0.148438,-1.049805,23.400588,8.453566,-70.913487,-17.651691,0.106870,-1.625954,-0.465649,1,48455649,-972.785516,-0.063111,-177.227459,-43.470435,-0.072748,-8.024545,-0.975098,-0.006592,-0.188232,24.953529,-102.455642,52.715784,-160.977877,-2.267176,0.595420,-3.351145,2,48463241,245.817057,-991.151887,354.842154,10.810666,-43.961740,15.721199,0.229736,-0.957031,0.327637,24.012353,59.972132,76.952909,49.674832,0.389313,1.526718,1.763359,3,48470754,-996.032903,25.565861,145.734482,-44.305276,1.041093,6.579441,-1.013184,0.000732,0.209473,23.165294,189.699089,69.412719,-65.482456,4.870229,0.358779,0.068702,4,48478214,22.652507,158.595171,893.590455,0.956606,7.040384,39.725070,-0.025879,0.077637,0.889160,22.977059,49.939583,82.514237,-166.785237,0.732824,2.083969,-3.328244,5,48485618,-121.801724,-1001.061565,-38.263650,-5.423407,-44.518800,-1.621523,-0.128418,-0.972900,-0.036865,24.718235,-60.120715,25.883162,-59.470931,-0.961832,0.557252,-2.954198,
0,48448122,-0.755873,151.711345,-1056.871665,-0.045749,6.713319,-46.963357,-0.008545,0.148438,-1.049805,23.400588,8.453566,-70.913487,-17.651691,0.106870,-1.625954,-0.465649,1,48455649,-972.785516,-0.063111,-177.227459,-43.470435,-0.072748,-8.024545,-0.975098,-0.006592,-0.188232,24.953529,-102.455642,52.715784,-160.977877,-2.267176,0.595420,-3.351145,2,48463241,245.817057,-991.151887,354.842154,10.810666,-43.961740,15.721199,0.229736,-0.957031,0.327637,24.012353,59.972132,76.952909,49.674832,0.389313,1.526718,1.763359,3,48470754,-996.032903,25.565861,145.734482,-44.305276,1.041093,6.579441,-1.013184,0.000732,0.209473,23.165294,189.699089,69.412719,-65.482456,4.870229,0.358779,0.068702,4,48478214,22.652507,158.595171,893.590455,0.956606,7.040384,39.725070,-0.025879,0.077637,0.889160,22.977059,49.939583,82.514237,-166.785237,0.732824,2.083969,-3.328244,5,48485618,-121.801724,-1001.061565,-38.263650,-5.423407,-44.518800,-1.621523,-0.128418,-0.972900,-0.036865,24.718235,-60.120715,25.883162,-59.470931,-0.961832,0.557252,-2.954198,
0,48448122,-0.755873,151.711345,-1056.871665,-0.045749,6.713319,-46.963357,-0.008545,0.148438,-1.049805,23.400588,8.453566,-70.913487,-17.651691,0.106870,-1.625954,-0.465649,1,48455649,-972.785516,-0.063111,-177.227459,-43.470435,-0.072748,-8.024545,-0.975098,-0.006592,-0.188232,24.953529,-102.455642,52.715784,-160.977877,-2.267176,0.595420,-3.351145,2,48463241,245.817057,-991.151887,354.842154,10.810666,-43.961740,15.721199,0.229736,-0.957031,0.327637,24.012353,59.972132,76.952909,49.674832,0.389313,1.526718,1.763359,3,48470754,-996.032903,25.565861,145.734482,-44.305276,1.041093,6.579441,-1.013184,0.000732,0.209473,23.165294,189.699089,69.412719,-65.482456,4.870229,0.358779,0.068702,4,48478214,22.652507,158.595171,893.590455,0.956606,7.040384,39.725070,-0.025879,0.077637,0.889160,22.977059,49.939583,82.514237,-166.785237,0.732824,2.083969,-3.328244,5,48485618,-121.801724,-1001.061565,-38.263650,-5.423407,-44.518800,-1.621523,-0.128418,-0.972900,-0.036865,24.718235,-60.120715,25.883162,-59.470931,-0.961832,0.557252,-2.954198,
0,48448122,-0.755873,151.711345,-1056.871665,-0.045749,6.713319,-46.963357,-0.008545,0.148438,-1.049805,23.400588,8.453566,-70.913487,-17.651691,0.106870,-1.625954,-0.465649,1,48455649,-972.785516,-0.063111,-177.227459,-43.470435,-0.072748,-8.024545,-0.975098,-0.006592,-0.188232,24.953529,-102.455642,52.715784,-160.977877,-2.267176,0.595420,-3.351145,2,48463241,245.817057,-991.151887,354.842154,10.810666,-43.961740,15.721199,0.229736,-0.957031,0.327637,24.012353,59.972132,76.952909,49.674832,0.389313,1.526718,1.763359,3,48470754,-996.032903,25.565861,145.734482,-44.305276,1.041093,6.579441,-1.013184,0.000732,0.209473,23.165294,189.699089,69.412719,-65.482456,4.870229,0.358779,0.068702,4,48478214,22.652507,158.595171,893.590455,0.956606,7.040384,39.725070,-0.025879,0.077637,0.889160,22.977059,49.939583,82.514237,-166.785237,0.732824,2.083969,-3.328244,5,48485618,-121.801724,-1001.061565,-38.263650,-5.423407,-44.518800,-1.621523,-0.128418,-0.972900,-0.036865,24.718235,-60.120715,25.883162,-59.470931,-0.961832,0.557252,-2.954198,
0,48448122,-0.755873,151.711345,-1056.871665,-0.045749,6.713319,-46.963357,-0.008545,0.148438,-1.049805,23.400588,8.453566,-70.913487,-17.651691,0.106870,-1.625954,-0.465649,1,48455649,-972.785516,-0.063111,-177.227459,-43.470435,-0.072748,-8.024545,-0.975098,-0.006592,-0.188232,24.953529,-102.455642,52.715784,-160.977877,-2.267176,0.595420,-3.351145,2,48463241,245.817057,-991.151887,354.842154,10.810666,-43.961740,15.721199,0.229736,-0.957031,0.327637,24.012353,59.972132,76.952909,49.674832,0.389313,1.526718,1.763359,3,48470754,-996.032903,25.565861,145.734482,-44.305276,1.041093,6.579441,-1.013184,0.000732,0.209473,23.165294,189.699089,69.412719,-65.482456,4.870229,0.358779,0.068702,4,48478214,22.652507,158.595171,893.590455,0.956606,7.040384,39.725070,-0.025879,0.077637,0.889160,22.977059,49.939583,82.514237,-166.785237,0.732824,2.083969,-3.328244,5,48485618,-121.801724,-1001.061565,-38.263650,-5.423407,-44.518800,-1.621523,-0.128418,-0.972900,-0.036865,24.718235,-60.120715,25.883162,-59.470931,-0.961832,0.557252,-2.954198,
0,48448122,-0.755873,151.711345,-1056.871665,-0.045749,6.713319,-46.963357,-0.008545,0.148438,-1.049805,23.400588,8.453566,-70.913487,-17.651691,0.106870,-1.625954,-0.465649,1,48455649,-972.785516,-0.063111,-177.227459,-43.470435,-0.072748,-8.024545,-0.975098,-0.006592,-0.188232,24.953529,-102.455642,52.715784,-160.977877,-2.267176,0.595420,-3.351145,2,48463241,245.817057,-991.151887,354.842154,10.810666,-43.961740,15.721199,0.229736,-0.957031,0.327637,24.012353,59.972132,76.952909,49.674832,0.389313,1.526718,1.763359,3,48470754,-996.032903,25.565861,145.734482,-44.305276,1.041093,6.579441,-1.013184,0.000732,0.209473,23.165294,189.699089,69.412719,-65.482456,4.870229,0.358779,0.068702,4,48478214,22.652507,158.595171,893.590455,0.956606,7.040384,39.725070,-0.025879,0.077637,0.889160,22.977059,49.939583,82.514237,-166.785237,0.732824,2.083969,-3.328244,5,48485618,-121.801724,-1001.061565,-38.263650,-5.423407,-44.518800,-1.621523,-0.128418,-0.972900,-0.036865,24.718235,-60.120715,25.883162,-59.470931,-0.961832,0.557252,-2.954198,
0,48448122,-0.755873,151.711345,-1056.871665,-0.045749,6.713319,-46.963357,-0.008545,0.148438,-1.049805,23.400588,8.453566,-70.913487,-17.651691,0.106870,-1.625954,-0.465649,1,48455649,-972.785516,-0.063111,-177.227459,-43.470435,-0.072748,-8.024545,-0.975098,-0.006592,-0.188232,24.953529,-102.455642,52.715784,-160.977877,-2.267176,0.595420,-3.351145,2,48463241,245.817057,-991.151887,354.842154,10.810666,-43.961740,15.721199,0.229736,-0.957031,0.327637,24.012353,59.972132,76.952909,49.674832,0.389313,1.526718,1.763359,3,48470754,-996.032903,25.565861,145.734482,-44.305276,1.041093,6.579441,-1.013184,0.000732,0.209473,23.165294,189.699089,69.412719,-65.482456,4.870229,0.358779,0.068702,4,48478214,22.652507,158.595171,893.590455,0.956606,7.040384,39.725070,-0.025879,0.077637,0.889160,22.977059,49.939583,82.514237,-166.785237,0.732824,2.083969,-3.328244,5,48485618,-121.801724,-1001.061565,-38.263650,-5.423407,-44.518800,-1.621523,-0.128418,-0.972900,-0.036865,24.718235,-60.120715,25.883162,-59.470931,-0.961832,0.557252,-2.954198,
0,48448122,-0.755873,151.711345,-1056.871665,-0.045749,6.713319,-46.963357,-0.008545,0.148438,-1.049805,23.400588,8.453566,-70.913487,-17.651691,0.106870,-1.625954,-0.465649,1,48455649,-972.785516,-0.063111,-177.227459,-43.470435,-0.072748,-8.024545,-0.975098,-0.006592,-0.188232,24.953529,-102.455642,52.715784,-160.977877,-2.267176,0.595420,-3.351145,2,48463241,245.817057,-991.151887,354.842154,10.810666,-43.961740,15.721199,0.229736,-0.957031,0.327637,24.012353,59.972132,76.952909,49.674832,0.389313,1.526718,1.763359,3,48470754,-996.032903,25.565861,145.734482,-44.305276,1.041093,6.579441,-1.013184,0.000732,0.209473,23.165294,189.699089,69.412719,-65.482456,4.870229,0.358779,0.068702,4,48478214,22.652507,158.595171,893.590455,0.956606,7.040384,39.725070,-0.025879,0.077637,0.889160,22.977059,49.939583,82.514237,-166.785237,0.732824,2.083969,-3.328244,5,48485618,-121.801724,-1001.061565,-38.263650,-5.423407,-44.518800,-1.621523,-0.128418,-0.972900,-0.036865,24.718235,-60.120715,25.883162,-59.470931,-0.961832,0.557252,-2.954198,
0,48448122,-0.755873,151.711345,-1056.871665,-0.045749,6.713319,-46.963357,-0.008545,0.148438,-1.049805,23.400588,8.453566,-70.913487,-17.651691,0.106870,-1.625954,-0.465649,1,48455649,-972.785516,-0.063111,-177.227459,-43.470435,-0.072748,-8.024545,-0.975098,-0.006592,-0.188232,24.953529,-102.455642,52.715784,-160.977877,-2.267176,0.595420,-3.351145,2,48463241,245.817057,-991.151887,354.842154,10.810666,-43.961740,15.721199,0.229736,-0.957031,0.327637,24.012353,59.972132,76.952909,49.674832,0.389313,1.526718,1.763359,3,48470754,-996.032903,25.565861,145.734482,-44.305276,1.041093,6.579441,-1.013184,0.000732,0.209473,23.165294,189.699089,69.412719,-65.482456,4.870229,0.358779,0.068702,4,48478214,22.652507,158.595171,893.590455,0.956606,7.040384,39.725070,-0.025879,0.077637,0.889160,22.977059,49.939583,82.514237,-166.785237,0.732824,2.083969,-3.328244,5,48485618,-121.801724,-1001.061565,-38.263650,-5.423407,-44.518800,-1.621523,-0.128418,-0.972900,-0.036865,24.718235,-60.120715,25.883162,-59.470931,-0.961832,0.557252,-2.954198,
0,48448122,-0.755873,151.711345,-1056.871665,-0.045749,6.713319,-46.963357,-0.008545,0.148438,-1.049805,23.400588,8.453566,-70.913487,-17.651691,0.106870,-1.625954,-0.465649,1,48455649,-972.785516,-0.063111,-177.227459,-43.470435,-0.072748,-8.024545,-0.975098,-0.006592,-0.188232,24.953529,-102.455642,52.715784,-160.977877,-2.267176,0.595420,-3.351145,2,48463241,245.817057,-991.151887,354.842154,10.810666,-43.961740,15.721199,0.229736,-0.957031,0.327637,24.012353,59.972132,76.952909,49.674832,0.389313,1.526718,1.763359,3,48470754,-996.032903,25.565861,145.734482,-44.305276,1.041093,6.579441,-1.013184,0.000732,0.209473,23.165294,189.699089,69.412719,-65.482456,4.870229,0.358779,0.068702,4,48478214,22.652507,158.595171,893.590455,0.956606,7.040384,39.725070,-0.025879,0.077637,0.889160,22.977059,49.939583,82.514237,-166.785237,0.732824,2.083969,-3.328244,5,48485618,-121.801724,-1001.061565,-38.263650,-5.423407,-44.518800,-1.621523,-0.128418,-0.972900,-0.036865,24.718235,-60.120715,25.883162,-59.470931,-0.961832,0.557252,-2.954198,
0,48448122,-0.755873,151.711345,-1056.871665,-0.045749,6.713319,-46.963357,-0.008545,0.148438,-1.049805,23.400588,8.453566,-70.913487,-17.651691,0.106870,-1.625954,-0.465649,1,48455649,-972.785516,-0.063111,-177.227459,-43.470435,-0.072748,-8.024545,-0.975098,-0.006592,-0.188232,24.953529,-102.455642,52.715784,-160.977877,-2.267176,0.595420,-3.351145,2,48463241,245.817057,-991.151887,354.842154,10.810666,-43.961740,15.721199,0.229736,-0.957031,0.327637,24.012353,59.972132,76.952909,49.674832,0.389313,1.526718,1.763359,3,48470754,-996.032903,25.565861,145.734482,-44.305276,1.041093,6.579441,-1.013184,0.000732,0.209473,23.165294,189.699089,69.412719,-65.482456,4.870229,0.358779,0.068702,4,48478214,22.652507,158.595171,893.590455,0.956606,7.040384,39.725070,-0.025879,0.077637,0.889160,22.977059,49.939583,82.514237,-166.785237,0.732824,2.083969,-3.328244,5,48485618,-121.801724,-1001.061565,-38.263650,-5.423407,-44.518800,-1.621523,-0.128418,-0.972900,-0.036865,24.718235,-60.120715,25.883162,-59.470931,-0.961832,0.557252,-2.954198,
0,48448122,-0.755873,151.711345,-1056.871665,-0.045749,6.713319,-46.963357,-0.008545,0.148438,-1.049805,23.400588,8.453566,-70.913487,-17.651691,0.106870,-1.625954,-0.465649,1,48455649,-972.785516,-0.063111,-177.227459,-43.470435,-0.072748,-8.024545,-0.975098,-0.006592,-0.188232,24.953529,-102.455642,52.715784,-160.977877,-2.267176,0.595420,-3.351145,2,48463241,245.817057,-991.151887,354.842154,10.810666,-43.961740,15.721199,0.229736,-0.957031,0.327637,24.012353,59.972132,76.952909,49.674832,0.389313,1.526718,1.763359,3,48470754,-996.032903,25.565861,145.734482,-44.305276,1.041093,6.579441,-1.013184,0.000732,0.209473,23.165294,189.699089,69.412719,-65.482456,4.870229,0.358779,0.068702,4,48478214,22.652507,158.595171,893.590455,0.956606,7.040384,39.725070,-0.025879,0.077637,0.889160,22.977059,49.939583,82.514237,-166.785237,0.732824,2.083969,-3.328244,5,48485618,-121.801724,-1001.061565,-38.263650,-5.423407,-44.518800,-1.621523,-0.128418,-0.972900,-0.036865,24.718235,-60.120715,25.883162,-59.470931,-0.961832,0.557252,-2.954198,
0,48448122,-0.755873,151.711345,-1056.871665,-0.045749,6.713319,-46.963357,-0.008545,0.148438,-1.049805,23.400588,8.453566,-70.913487,-17.651691,0.106870,-1.625954,-0.465649,1,48455649,-972.785516,-0.063111,-177.227459,-43.470435,-0.072748,-8.024545,-0.975098,-0.006592,-0.188232,24.953529,-102.455642,52.715784,-160.977877,-2.267176,0.595420,-3.351145,2,48463241,245.817057,-991.151887,354.842154,10.810666,-43.961740,15.721199,0.229736,-0.957031,0.327637,24.012353,59.972132,76.952909,49.674832,0.389313,1.526718,1.763359,3,48470754,-996.032903,25.565861,145.734482,-44.305276,1.041093,6.579441,-1.013184,0.000732,0.209473,23.165294,189.699089,69.412719,-65.482456,4.870229,0.358779,0.068702,4,48478214,22.652507,158.595171,893.590455,0.956606,7.040384,39.725070,-0.025879,0.077637,0.889160,22.977059,49.939583,82.514237,-166.785237,0.732824,2.083969,-3.328244,5,48485618,-121.801724,-1001.061565,-38.263650,-5.423407,-44.518800,-1.621523,-0.128418,-0.972900,-0.036865,24.718235,-60.120715,25.883162,-59.470931,-0.961832,0.557252,-2.954198,
0,48448122,-0.755873,151.711345,-1056.871665,-0.045749,6.713319,-46.963357,-0.008545,0.148438,-1.049805,23.400588,8.453566,-70.913487,-17.651691,0.106870,-1.625954,-0.465649,1,48455649,-972.785516,-0.063111,-177.227459,-43.470435,-0.072748,-8.024545,-0.975098,-0.006592,-0.188232,24.953529,-102.455642,52.715784,-160.977877,-2.267176,0.595420,-3.351145,2,48463241,245.817057,-991.151887,354.842154,10.810666,-43.961740,15.721199,0.229736,-0.957031,0.327637,24.012353,59.972132,76.952909,49.674832,0.389313,1.526718,1.763359,3,48470754,-996.032903,25.565861,145.734482,-44.305276,1.041093,6.579441,-1.013184,0.000732,0.209473,23.165294,189.699089,69.412719,-65.482456,4.870229,0.358779,0.068702,4,48478214,22.652507,158.595171,893.590455,0.956606,7.040384,39.725070,-0.025879,0.077637,0.889160,22.977059,49.939583,82.514237,-166.785237,0.732824,2.083969,-3.328244,5,48485618,-121.801724,-1001.061565,-38.263650,-5.423407,-44.518800,-1.621523,-0.128418,-0.972900,-0.036865,24.718235,-60.120715,25.883162,-59.470931,-0.961832,0.557252,-2.954198,
0,48448122,-0.755873,151.711345,-1056.871665,-0.045749,6.713319,-46.963357,-0.008545,0.148438,-1.049805,23.400588,8.453566,-70.913487,-17.651691,0.106870,-1.625954,-0.465649,1,48455649,-972.785516,-0.063111,-177.227459,-43.470435,-0.072748,-8.024545,-0.975098,-0.006592,-0.188232,24.953529,-102.455642,52.715784,-160.977877,-2.267176,0.595420,-3.351145,2,48463241,245.817057,-991.151887,354.842154,10.810666,-43.961740,15.721199,0.229736,-0.957031,0.327637,24.012353,59.972132,76.952909,49.674832,0.389313,1.526718,1.763359,3,48470754,-996.032903,25.565861,145.734482,-44.305276,1.041093,6.579441,-1.013184,0.000732,0.209473,23.165294,189.699089,69.412719,-65.482456,4.870229,0.358779,0.068702,4,48478214,22.652507,158.595171,893.590455,0.956606,7.040384,39.725070,-0.025879,0.077637,0.889160,22.977059,49.939583,82.514237,-166.785237,0.732824,2.083969,-3.328244,5,48485618,-121.801724,-1001.061565,-38.263650,-5.423407,-44.518800,-1.621523,-0.128418,-0.972900,-0.036865,24.718235,-60.120715,25.883162,-59.470931,-0.961832,0.557252,-2.954198,
0,48448122,-0.755873,151.711345,-1056.871665,-0.045749,6.713319,-46.963357,-0.008545,0.148438,-1.049805,23.400588,8.453566,-70.913487,-17.651691,0.106870,-1.625954,-0.465649,1,48455649,-972.785516,-0.063111,-177.227459,-43.470435,-0.072748,-8.024545,-0.975098,-0.006592,-0.188232,24.953529,-102.455642,52.715784,-160.977877,-2.267176,0.595420,-3.351145,2,48463241,245.817057,-991.151887,354.842154,10.810666,-43.961740,15.721199,0.229736,-0.957031,0.327637,24.012353,59.972132,76.952909,49.674832,0.389313,1.526718,1.763359,3,48470754,-996.032903,25.565861,145.734482,-44.305276,1.041093,6.579441,-1.013184,0.000732,0.209473,23.165294,189.699089,69.412719,-65.482456,4.870229,0.358779,0.068702,4,48478214,22.652507,158.595171,893.590455,0.956606,7.040384,39.725070,-0.025879,0.077637,0.889160,22.977059,49.939583,82.514237,-166.785237,0.732824,2.083969,-3.328244,5,48485618,-121.801724,-1001.061565,-38.263650,-5.423407,-44.518800,-1.621523,-0.128418,-0.972900,-0.036865,24.718235,-60.120715,25.883162,-59.470931,-0.961832,0.557252,-2.954198,
0,48448122,-0.755873,151.711345,-1056.871665,-0.045749,6.713319,-46.963357,-0.008545,0.148438,-1.049805,23.400588,8.453566,-70.913487,-17.651691,0.106870,-1.625954,-0.465649,1,48455649,-972.785516,-0.063111,-177.227459,-43.470435,-0.072748,-8.024545,-0.975098,-0.006592,-0.188232,24.953529,-102.455642,52.715784,-160.977877,-2.267176,0.595420,-3.351145,2,48463241,245.817057,-991.151887,354.842154,10.810666,-43.961740,15.721199,0.229736,-0.957031,0.327637,24.012353,59.972132,76.952909,49.674832,0.389313,1.526718,1.763359,3,48470754,-996.032903,25.565861,145.734482,-44.305276,1.041093,6.579441,-1.013184,0.000732,0.209473,23.165294,189.699089,69.412719,-65.482456,4.870229,0.358779,0.068702,4,48478214,22.652507,158.595171,893.590455,0.956606,7.040384,39.725070,-0.025879,0.077637,0.889160,22.977059,49.939583,82.514237,-166.785237,0.732824,2.083969,-3.328244,5,48485618,-121.801724,-1001.061565,-38.263650,-5.423407,-44.518800,-1.621523,-0.128418,-0.972900,-0.036865,24.718235,-60.120715,25.883162,-59.470931,-0.961832,0.557252,-2.954198,
0,48448122,-0.755873,151.711345,-1056.871665,-0.045749,6.713319,-46.963357,-0.008545,0.148438,-1.049805,23.400588,8.453566,-70.913487,-17.651691,0.106870,-1.625954,-0.465649,1,48455649,-972.785516,-0.063111,-177.227459,-43.470435,-0.072748,-8.024545,-0.975098,-0.006592,-0.188232,24.953529,-102.455642,52.715784,-160.977877,-2.267176,0.595420,-3.351145,2,48463241,245.817057,-991.151887,354.842154,10.810666,-43.961740,15.721199,0.229736,-0.957031,0.327637,24.012353,59.972132,76.952909,49.674832,0.389313,1.526718,1.763359,3,48470754,-996.032903,25.565861,145.734482,-44.305276,1.041093,6.579441,-1.013184,0.000732,0.209473,23.165294,189.699089,69.412719,-65.482456,4.870229,0.358779,0.068702,4,48478214,22.652507,158.595171,893.590455,0.956606,7.040384,39.725070,-0.025879,0.077637,0.889160,22.977059,49.939583,82.514237,-166.785237,0.732824,2.083969,-3.328244,5,48485618,-121.801724,-1001.061565,-38.263650,-5.423407,-44.518800,-1.621523,-0.128418,-0.972900,-0.036865,24.718235,-60.120715,25.883162,-59.470931,-0.961832,0.557252,-2.954198,
0,48448122,-0.755873,151.711345,-1056.871665,-0.045749,6.713319,-46.963357,-0.008545,0.148438,-1.049805,23.400588,8.453566,-70.913487,-17.651691,0.106870,-1.625954,-0.465649,1,48455649,-972.785516,-0.063111,-177.227459,-43.470435,-0.072748,-8.024545,-0.975098,-0.006592,-0.188232,24.953529,-102.455642,52.715784,-160.977877,-2.267176,0.595420,-3.351145,2,48463241,245.817057,-991.151887,354.842154,10.810666,-43.961740,15.721199,0.229736,-0.957031,0.327637,24.012353,59.972132,76.952909,49.674832,0.389313,1.526718,1.763359,3,48470754,-996.032903,25.565861,145.734482,-44.305276,1.041093,6.579441,-1.013184,0.000732,0.209473,23.165294,189.699089,69.412719,-65.482456,4.870229,0.358779,0.068702,4,48478214,22.652507,158.595171,893.590455,0.956606,7.040384,39.725070,-0.025879,0.077637,0.889160,22.977059,49.939583,82.514237,-166.785237,0.732824,2.083969,-3.328244,5,48485618,-121.801724,-1001.061565,-38.263650,-5.423407,-44.518800,-1.621523,-0.128418,-0.972900,-0.036865,24.718235,-60.120715,25.883162,-59.470931,-0.961832,0.557252,-2.954198,
0,48448122,-0.755873,151.711345,-1056.871665,-0.045749,6.713319,-46.963357,-0.008545,0.148438,-1.049805,23.400588,8.453566,-70.913487,-17.651691,0.106870,-1.625954,-0.465649,1,48455649,-972.785516,-0.063111,-177.227459,-43.470435,-0.072748,-8.024545,-0.975098,-0.006592,-0.188232,24.953529,-102.455642,52.715784,-160.977877,-2.267176,0.595420,-3.351145,2,48463241,245.817057,-991.151887,354.842154,10.810666,-43.961740,15.721199,0.229736,-0.957031,0.327637,24.012353,59.972132,76.952909,49.674832,0.389313,1.526718,1.763359,3,48470754,-996.032903,25.565861,145.734482,-44.305276,1.041093,6.579441,-1.013184,0.000732,0.209473,23.165294,189.699089,69.412719,-65.482456,4.870229,0.358779,0.068702,4,48478214,22.652507,158.595171,893.590455,0.956606,7.040384,39.725070,-0.025879,0.077637,0.889160,22.977059,49.939583,82.514237,-166.785237,0.732824,2.083969,-3.328244,5,48485618,-121.801724,-1001.061565,-38.263650,-5.423407,-44.518800,-1.621523,-0.128418,-0.972900,-0.036865,24.718235,-60.120715,25.883162,-59.470931,-0.961832,0.557252,-2.954198,
0,48448122,-0.755873,151.711345,-1056.871665,-0.045749,6.713319,-46.963357,-0.008545,0.148438,-1.049805,23.400588,8.453566,-70.913487,-17.651691,0.106870,-1.625954,-0.465649,1,48455649,-972.785516,-0.063111,-177.227459,-43.470435,-0.072748,-8.024545,-0.975098,-0.006592,-0.188232,24.953529,-102.455642,52.715784,-160.977877,-2.267176,0.595420,-3.351145,2,48463241,245.817057,-991.151887,354.842154,10.810666,-43.961740,15.721199,0.229736,-0.957031,0.327637,24.012353,59.972132,76.952909,49.674832,0.389313,1.526718,1.763359,3,48470754,-996.032903,25.565861,145.734482,-44.305276,1.041093,6.579441,-1.013184,0.000732,0.209473,23.165294,189.699089,69.412719,-65.482456,4.870229,0.358779,0.068702,4,48478214,22.652507,158.595171,893.590455,0.956606,7.040384,39.725070,-0.025879,0.077637,0.889160,22.977059,49.939583,82.514237,-166.785237,0.732824,2.083969,-3.328244,5,48485618,-121.801724,-1001.061565,-38.263650,-5.423407,-44.518800,-1.621523,-0.128418,-0.972900,-0.036865,24.718235,-60.120715,25.883162,-59.470931,-0.961832,0.557252,-2.954198,
0,48448122,-0.755873,151.711345,-1056.871665,-0.045749,6.713319,-46.963357,-0.008545,0.148438,-1.049805,23.400588,8.453566,-70.913487,-17.651691,0.106870,-1.625954,-0.465649,1,48455649,-972.785516,-0.063111,-177.227459,-43.470435,-0.072748,-8.024545,-0.975098,-0.006592,-0.188232,24.953529,-102.455642,52.715784,-160.977877,-2.267176,0.595420,-3.351145,2,48463241,245.817057,-991.151887,354.842154,10.810666,-43.961740,15.721199,0.229736,-0.957031,0.327637,24.012353,59.972132,76.952909,49.674832,0.389313,1.526718,1.763359,3,48470754,-996.032903,25.565861,145.734482,-44.305276,1.041093,6.579441,-1.013184,0.000732,0.209473,23.165294,189.699089,69.412719,-65.482456,4.870229,0.358779,0.068702,4,48478214,22.652507,158.595171,893.590455,0.956606,7.040384,39.725070,-0.025879,0.077637,0.889160,22.977059,49.939583,82.514237,-166.785237,0.732824,2.083969,-3.328244,5,48485618,-121.801724,-1001.061565,-38.263650,-5.423407,-44.518800,-1.621523,-0.128418,-0.972900,-0.036865,24.718235,-60.120715,25.883162,-59.470931,-0.961832,0.557252,-2.954198,
0,48448122,-0.755873,151.711345,-1056.871665,-0.045749,6.713319,-46.963357,-0.008545,0.148438,-1.049805,23.400588,8.453566,-70.913487,-17.651691,0.106870,-1.625954,-0.465649,1,48455649,-972.785516,-0.063111,-177.227459,-43.470435,-0.072748,-8.024545,-0.975098,-0.006592,-0.188232,24.953529,-102.455642,52.715784,-160.977877,-2.267176,0.595420,-3.351145,2,48463241,245.817057,-991.151887,354.842154,10.810666,-43.961740,15.721199,0.229736,-0.957031,0.327637,24.012353,59.972132,76.952909,49.674832,0.389313,1.526718,1.763359,3,48470754,-996.032903,25.565861,145.734482,-44.305276,1.041093,6.579441,-1.013184,0.000732,0.209473,23.165294,189.699089,69.412719,-65.482456,4.870229,0.358779,0.068702,4,48478214,22.652507,158.595171,893.590455,0.956606,7.040384,39.725070,-0.025879,0.077637,0.889160,22.977059,49.939583,82.514237,-166.785237,0.732824,2.083969,-3.328244,5,48485618,-121.801724,-1001.061565,-38.263650,-5.423407,-44.518800,-1.621523,-0.128418,-0.972900,-0.036865,24.718235,-60.120715,25.883162,-59.470931,-0.961832,0.557252,-2.954198,
0,48448122,-0.755873,151.711345,-1056.871665,-0.045749,6.713319,-46.963357,-0.008545,0.148438,-1.049805,23.400588,8.453566,-70.913487,-17.651691,0.106870,-1.625954,-0.465649,1,48455649,-972.785516,-0.063111,-177.227459,-43.470435,-0.072748,-8.024545,-0.975098,-0.006592,-0.188232,24.953529,-102.455642,52.715784,-160.977877,-2.267176,0.595420,-3.351145,2,48463241,245.817057,-991.151887,354.842154,10.810666,-43.961740,15.721199,0.229736,-0.957031,0.327637,24.012353,59.972132,76.952909,49.674832,0.389313,1.526718,1.763359,3,48470754,-996.032903,25.565861,145.734482,-44.305276,1.041093,6.579441,-1.013184,0.000732,0.209473,23.165294,189.699089,69.412719,-65.482456,4.870229,0.358779,0.068702,4,48478214,22.652507,158.595171,893.590455,0.956606,7.040384,39.725070,-0.025879,0.077637,0.889160,22.977059,49.939583,82.514237,-166.785237,0.732824,2.083969,-3.328244,5,48485618,-121.801724,-1001.061565,-38.263650,-5.423407,-44.518800,-1.621523,-0.128418,-0.972900,-0.036865,24.718235,-60.120715,25.883162,-59.470931,-0.961832,0.557252,-2.954198,
0,48448122,-0.755873,151.711345,-1056.871665,-0.045749,6.713319,-46.963357,-0.008545,0.148438,-1.049805,23.400588,8.453566,-70.913487,-17.651691,0.106870,-1.625954,-0.465649,1,48455649,-972.785516,-0.063111,-177.227459,-43.470435,-0.072748,-8.024545,-0.975098,-0.006592,-0.188232,24.953529,-102.455642,52.715784,-160.977877,-2.267176,0.595420,-3.351145,2,48463241,245.817057,-991.151887,354.842154,10.810666,-43.961740,15.721199,0.229736,-0.957031,0.327637,24.012353,59.972132,76.952909,49.674832,0.389313,1.526718,1.763359,3,48470754,-996.032903,25.565861,145.734482,-44.305276,1.041093,6.579441,-1.013184,0.000732,0.209473,23.165294,189.699089,69.412719,-65.482456,4.870229,0.358779,0.068702,4,48478214,22.652507,158.595171,893.590455,0.956606,7.040384,39.725070,-0.025879,0.077637,0.889160,22.977059,49.939583,82.514237,-166.785237,0.732824,2.083969,-3.328244,5,48485618,-121.801724,-1001.061565,-38.263650,-5.423407,-44.518800,-1.621523,-0.128418,-0.972900,-0.036865,24.718235,-60.120715,25.883162,-59.470931,-0.961832,0.557252,-2.954198,
0,48448122,-0.755873,151.711345,-1056.871665,-0.045749,6.713319,-46.963357,-0.008545,0.148438,-1.049805,23.400588,8.453566,-70.913487,-17.651691,0.106870,-1.625954,-0.465649,1,48455649,-972.785516,-0.063111,-177.227459,-43.470435,-0.072748,-8.024545,-0.975098,-0.006592,-0.188232,24.953529,-102.455642,52.715784,-160.977877,-2.267176,0.595420,-3.351145,2,48463241,245.817057,-991.151887,354.842154,10.810666,-43.961740,15.721199,0.229736,-0.957031,0.327637,24.012353,59.972132,76.952909,49.674832,0.389313,1.526718,1.763359,3,48470754,-996.032903,25.565861,145.734482,-44.305276,1.041093,6.579441,-1.013184,0.000732,0.209473,23.165294,189.699089,69.412719,-65.482456,4.870229,0.358779,0.068702,4,48478214,22.652507,158.595171,893.590455,0.956606,7.040384,39.725070,-0.025879,0.077637,0.889160,22.977059,49.939583,82.514237,-166.785237,0.732824,2.083969,-3.328244,5,48485618,-121.801724,-1001.061565,-38.263650,-5.423407,-44.518800,-1.621523,-0.128418,-0.972900,-0.036865,24.718235,-60.120715,25.883162,-59.470931,-0.961832,0.557252,-2.954198,
